<?xml version="1.0" encoding="UTF-8"?>

<ODM xmlns="http://www.cdisc.org/ns/odm/v1.3" xmlns:xs="http://www.w3.org/2001/XMLSchema-instance" xmlns:nciodm="http://ncicb.nci.nih.gov/xml/odm/EVS/CDISC" FileType="Snapshot" FileOID="CDISC_CT.Glossary.2021-12-17" Granularity="Metadata" CreationDateTime="2021-12-17T11:05:36" AsOfDateTime="2021-12-17T00:00:00" ODMVersion="1.3.2" Originator="CDISC XML Technologies Team (Terminology2ODM converter)" SourceSystem="NCI Thesaurus" SourceSystemVersion="2021-12-17" nciodm:Context="Other" nciodm:ControlledTerminologyVersion="1.2.0">
    <Study OID="CDISC_CT.Glossary.2021-12-17">
        <GlobalVariables>
            <StudyName>CDISC Glossary Glossary</StudyName>
            <StudyDescription>CDISC Glossary Glossary, 2021-12-17</StudyDescription>
            <ProtocolName>CDISC Glossary Glossary</ProtocolName>
        </GlobalVariables>
        <MetaDataVersion OID="CDISC_CT_MetaDataVersion.Glossary.2021-12-17" Name="CDISC Glossary Glossary" Description="CDISC Glossary Glossary, 2021-12-17">
            <CodeList OID="CL.C67497.CDISC Glossary" Name="CDISC Glossary" DataType="text" nciodm:ExtCodeID="C67497">
                <Description>
                    <TranslatedText xml:lang="en">The terminology of the Clinical Data Interchange Standards Consortium (CDISC) glossary.</TranslatedText>
                </Description>
                <EnumeratedItem CodedValue="510(k)" nciodm:ExtCodeID="C80442">
                    <nciodm:CDISCDefinition>510(k). Premarket Notification (PMN) required for certain medical devices. See http://www.fda.gov/cdrh/510khome.html.</nciodm:CDISCDefinition>
                    <nciodm:PreferredTerm>Premarket Device Notification</nciodm:PreferredTerm>
                </EnumeratedItem>
                <EnumeratedItem CodedValue="abbreviation" nciodm:ExtCodeID="C42610">
                    <nciodm:CDISCDefinition>A set of letters that are drawn from a word or from a sequence of words and that are used for brevity in place of the full word or phrase. NOTE: An abbreviation is NOT pronounced as a word, but each letter is read in sequence (e.g., NIH). Compare to acronym.</nciodm:CDISCDefinition>
                    <nciodm:PreferredTerm>Abbreviation</nciodm:PreferredTerm>
                </EnumeratedItem>
                <EnumeratedItem CodedValue="absorption" nciodm:ExtCodeID="C71733">
                    <nciodm:CDISCDefinition>The process by which medications reach the blood stream when administered other than intravenously, for example, through nasal membranes. See also ADME (pharmacokinetics).</nciodm:CDISCDefinition>
                    <nciodm:PreferredTerm>Biological Absorption</nciodm:PreferredTerm>
                </EnumeratedItem>
                <EnumeratedItem CodedValue="accelerated approval" nciodm:ExtCodeID="C156638">
                    <nciodm:CDISCSynonym>fast track designation</nciodm:CDISCSynonym>
                    <nciodm:CDISCDefinition>Regulatory mechanism by which new drugs meant to treat serious life-threatening diseases and that provide meaningful therapeutic benefit to patients over existing treatments can be approved rapidly. [after FDA, Guidance for Industry Expedited Programs for Serious Conditions - Drugs and Biologics; after NIH-FDA BEST (Biomarkers, Endpoints, and other Tools) Resource https://www.ncbi.nlm.nih.gov/books/NBK338448/]</nciodm:CDISCDefinition>
                    <nciodm:PreferredTerm>Accelerated Approval</nciodm:PreferredTerm>
                </EnumeratedItem>
                <EnumeratedItem CodedValue="acronym" nciodm:ExtCodeID="C93495">
                    <nciodm:CDISCDefinition>A word formed from the beginning letters (e.g., ANSI) or a combination of syllables and letters (e.g., MedDRA) of a name or phrase. NOTE: An acronym is usually pronounced as a word, not by speaking each letter individually. Compare to abbreviation</nciodm:CDISCDefinition>
                    <nciodm:PreferredTerm>Acronym</nciodm:PreferredTerm>
                </EnumeratedItem>
                <EnumeratedItem CodedValue="action letter" nciodm:ExtCodeID="C142550">
                    <nciodm:CDISCDefinition>An official communication from FDA to an NDA sponsor announcing an agency decision. See also approval letter, approvable letter, not-approvable letter.</nciodm:CDISCDefinition>
                    <nciodm:PreferredTerm>FDA Action Letter</nciodm:PreferredTerm>
                </EnumeratedItem>
                <EnumeratedItem CodedValue="activation (EDC)" nciodm:ExtCodeID="C142528">
                    <nciodm:CDISCDefinition>Enabling an eClinical trial system to capture data; usually used for EDC systems.</nciodm:CDISCDefinition>
                    <nciodm:PreferredTerm>Electronic Data Capture Activation</nciodm:PreferredTerm>
                </EnumeratedItem>
                <EnumeratedItem CodedValue="active ingredient dose" nciodm:ExtCodeID="C95337">
                    <nciodm:CDISCSynonym>active substance dose</nciodm:CDISCSynonym>
                    <nciodm:CDISCDefinition>The amount of a single active substance administered in a single dose.</nciodm:CDISCDefinition>
                    <nciodm:PreferredTerm>Active Ingredient Dose</nciodm:PreferredTerm>
                </EnumeratedItem>
                <EnumeratedItem CodedValue="active ingredient" nciodm:ExtCodeID="C82533">
                    <nciodm:CDISCDefinition>An active ingredient is any component of a drug product intended to exert pharmacological activity or other direct effect in the diagnosis, cure, mitigation, treatment, or prevention of disease, or to affect the structure or any function of the body of humans or other animals. [After 21 CFR 210.3(b)(7)]</nciodm:CDISCDefinition>
                    <nciodm:PreferredTerm>Active Ingredient</nciodm:PreferredTerm>
                </EnumeratedItem>
                <EnumeratedItem CodedValue="adaptive design" nciodm:ExtCodeID="C98704">
                    <nciodm:CDISCDefinition>A clinical trial design that allows for prospectively planned modifications to one or more aspects of the design based on accumulating data from subjects in the trial. [Adaptive Designs for Clinical Trials of Drugs and Biologics Guidance for Industry, FDA] See also master protocol.</nciodm:CDISCDefinition>
                    <nciodm:PreferredTerm>Adaptive Design</nciodm:PreferredTerm>
                </EnumeratedItem>
                <EnumeratedItem CodedValue="adequate and well-controlled studies" nciodm:ExtCodeID="C142382">
                    <nciodm:CDISCDefinition>Studies used to support drug marketing authorization and intended to provide substantial evidence of effectiveness required by law to support a conclusion that a drug is effective. NOTE: For additional information see COA glossary of terms. [After 1. FDA Clinical Outcome Assessment (COA) Glossary; 2. 21 CFR 314.126]</nciodm:CDISCDefinition>
                    <nciodm:PreferredTerm>Adequate and Well-controlled Study</nciodm:PreferredTerm>
                </EnumeratedItem>
                <EnumeratedItem CodedValue="administrable dosage form" nciodm:ExtCodeID="C142383">
                    <nciodm:CDISCDefinition>Pharmaceutical dose form for administration to the patient, after any necessary transformation of the manufactured items and their corresponding manufactured dose forms has been carried out. [After ISO 11615 Identification of medicinal products-Data elements and structures for the unique identification and exchange of regulated medicinal product information, Second edition 2017-10] See also route of administration, administration (substance).</nciodm:CDISCDefinition>
                    <nciodm:PreferredTerm>Administrable Dosage Form</nciodm:PreferredTerm>
                </EnumeratedItem>
                <EnumeratedItem CodedValue="administration (substance)" nciodm:ExtCodeID="C25409">
                    <nciodm:CDISCDefinition>The act of introducing a substance into or onto the body. See also route of administration, administrable dosage form.</nciodm:CDISCDefinition>
                    <nciodm:PreferredTerm>Administration</nciodm:PreferredTerm>
                </EnumeratedItem>
                <EnumeratedItem CodedValue="admission criteria" nciodm:ExtCodeID="C142384">
                    <nciodm:CDISCDefinition>Basis for selecting target population for a clinical trial. Subjects must be screened to ensure that their characteristics match a list of admission criteria and that none of their characteristics match any single one of the exclusion criteria set up for the study. See also inclusion criteria, exclusion criteria.</nciodm:CDISCDefinition>
                    <nciodm:PreferredTerm>Admission Criteria</nciodm:PreferredTerm>
                </EnumeratedItem>
                <EnumeratedItem CodedValue="adverse drug reaction (ADR)" nciodm:ExtCodeID="C142385">
                    <nciodm:CDISCSynonym>adverse drug experience</nciodm:CDISCSynonym>
                    <nciodm:CDISCDefinition>Any noxious and unintended response associated with the use of a drug in humans. NOTE: 1. Post-approval: an adverse event that occurs at doses normally used in man for prophylaxis, diagnosis, or therapy of diseases or for modification of physiological function. 2. Pre-approval: an adverse event that occurs at any dose and where a causal relationship is at least a reasonable possibility. 3. FDA 21 CFR 310.305 defines an adverse drug experience to include any adverse event, "whether or not considered to be drug-related." CDISC recognizes that current usage incorporates the concept of causality. [WHO Technical Report 498(1972); ICH E2A]</nciodm:CDISCDefinition>
                    <nciodm:PreferredTerm>Adverse Drug Reaction</nciodm:PreferredTerm>
                </EnumeratedItem>
                <EnumeratedItem CodedValue="adverse event (AE)" nciodm:ExtCodeID="C41331">
                    <nciodm:CDISCSynonym>adverse experience</nciodm:CDISCSynonym>
                    <nciodm:CDISCSynonym>side effects</nciodm:CDISCSynonym>
                    <nciodm:CDISCDefinition>Any untoward medical occurrence in a patient or clinical investigation subject administered a pharmaceutical product and which does not necessarily have a causal relationship with this treatment. an adverse event (AE) can therefore be any unintended sign (including an abnormal laboratory finding), symptom, or disease temporally associated with the use of a medicinal (investigational) product, whether or not related to the medicinal (investigational) product. NOTE: For further information, see the ICH Guideline for Clinical safety Data Management: Definitions and standards for expedited Reporting. [After ICH E2A] See also serious adverse event, serious adverse experience.</nciodm:CDISCDefinition>
                    <nciodm:PreferredTerm>Adverse Event</nciodm:PreferredTerm>
                </EnumeratedItem>
                <EnumeratedItem CodedValue="adverse reaction" nciodm:ExtCodeID="C41332">
                    <nciodm:CDISCDefinition>A response to a medicinal product, devices, or procedures, which is noxious and unintended. Response in this context means that a causal relationship between a medicinal product and an adverse event is at least a reasonable possibility. In the context of drug development, the term is used as a synonym of adverse drug reaction. (After ICH E2A)</nciodm:CDISCDefinition>
                    <nciodm:PreferredTerm>Adverse Reaction</nciodm:PreferredTerm>
                </EnumeratedItem>
                <EnumeratedItem CodedValue="AEGIS (ADROIT Electronically Generated Information Service)" nciodm:ExtCodeID="C156645">
                    <nciodm:CDISCDefinition>A subscription service that provides subscribing organizations with access to adverse drug reaction data from the Medicines Control Agency ADROIT (Adverse Drug Reaction On-line Information Tracking) database.</nciodm:CDISCDefinition>
                    <nciodm:PreferredTerm>ADROIT Electronically Generated Information Service</nciodm:PreferredTerm>
                </EnumeratedItem>
                <EnumeratedItem CodedValue="AHIC (American Health Information Community)" nciodm:ExtCodeID="C156646">
                    <nciodm:CDISCDefinition>A US government-charted commission providing input and recommendations to HHS on how to make health records digital and interoperable, and assure the privacy and security of those records (HITSP).</nciodm:CDISCDefinition>
                    <nciodm:PreferredTerm>American Health Information Community</nciodm:PreferredTerm>
                </EnumeratedItem>
                <EnumeratedItem CodedValue="ALCOA +" nciodm:ExtCodeID="C156622">
                    <nciodm:CDISCSynonym>ALCOA Plus</nciodm:CDISCSynonym>
                    <nciodm:CDISCDefinition>Acronym for a number of attributes or dimensions included in ALCOA, plus the following: Complete, Consistent, Enduring, and Available when needed. NOTE: ALCOA + is a recent way to summarily refer to the attributes or dimensions of data integrity.) After EMA Reflection Paper on eSOURCE in effect since 2010. See also WHO Annex V, Guidance on Good Data and Record Management Practices. See also ALCOA, data integrity.</nciodm:CDISCDefinition>
                    <nciodm:PreferredTerm>Attributable, Legible, Contemporaneous, Original, Accurate Plus</nciodm:PreferredTerm>
                </EnumeratedItem>
                <EnumeratedItem CodedValue="ALCOA" nciodm:ExtCodeID="C156621">
                    <nciodm:CDISCDefinition>Acronym for a number of attributes or dimensions that are considered of universal importance for data integrity of source data and the records that hold those data. These include that the data and records be: A-Attributable (to both subject and to any actor on a record); L-Legible (available for human review, possible to read electronically if an encoded eRecord); C-Contemporaneous (timing of data collection with respect to the time the observation is made: the more promptly an observation is recorded, the better the quality.); O-Original (the first suitably accurate and reliable recording of data for the intended purpose); A-Accurate (free from error especially as the result of care; an accurate diagnosis conforming exactly to truth or to a standard). NOTE: ALCOA stemmed from FDA's Dr. Stan Woollen's talks in the early 90's on earmarks for the quality of records and has become a widespread acronym reflecting best practices for clarity and usability of data. [From EMA Reflection Paper on eSOURCE in effect since 2010] See also: Data Quality and the Origin of ALCOA. See also: Six Primary Dimensions for Data Quality Assessment. See also ALCOA+, data integrity.</nciodm:CDISCDefinition>
                    <nciodm:PreferredTerm>Attributable, Legible, Contemporaneous, Original, Accurate</nciodm:PreferredTerm>
                </EnumeratedItem>
                <EnumeratedItem CodedValue="alert" nciodm:ExtCodeID="C142753">
                    <nciodm:CDISCDefinition>To cause a high-priority signal (or warning) to be transmitted to the relevant stakeholder by way of the local system or another system (usually according to an established set of rules). For example, the system may transmit an alert to a patient's cardiologist that the patient has experienced another heart attack. another example is that the pharmacy system may transmit an alert to the prescribing physician that a potentially dangerous drug-drug interaction may occur based on the current list of medications. another example is that the system may notify a patient's physician that laboratory results (that are not within normal limits) are available. [HL7 EHR-SFM Glossary of Terms, 2010]</nciodm:CDISCDefinition>
                    <nciodm:PreferredTerm>System Alert</nciodm:PreferredTerm>
                </EnumeratedItem>
                <EnumeratedItem CodedValue="algorithm" nciodm:ExtCodeID="C16275">
                    <nciodm:CDISCDefinition>Step-by-step procedures for making a series of choices among alternative decisions to reach a calculated result or decision. NOTE: An algorithm may be used clinically to guide treatment decisions for an individual patient on the basis of the patient's clinical outcome or result. [after AMA Style Guide, 9th Edition]</nciodm:CDISCDefinition>
                    <nciodm:PreferredTerm>Algorithm</nciodm:PreferredTerm>
                </EnumeratedItem>
                <EnumeratedItem CodedValue="alpha error" nciodm:ExtCodeID="C142387">
                    <nciodm:CDISCDefinition>The likelihood that a relationship observed between two variables is due to chance. The probability of a Type 1 error. [Modified from AMA Manual of Style]</nciodm:CDISCDefinition>
                    <nciodm:PreferredTerm>Alpha Error</nciodm:PreferredTerm>
                </EnumeratedItem>
                <EnumeratedItem CodedValue="amendment" nciodm:ExtCodeID="C41200">
                    <nciodm:CDISCDefinition>A written description of a change(s) to, or formal clarification of, a document.</nciodm:CDISCDefinition>
                    <nciodm:PreferredTerm>Amendment</nciodm:PreferredTerm>
                </EnumeratedItem>
                <EnumeratedItem CodedValue="American National Standards Institute (ANSI)" nciodm:ExtCodeID="C142388">
                    <nciodm:CDISCDefinition>Founded in 1918, ANSI itself does not develop standards. ANSI's roles include serving as the coordinator for US voluntary standards efforts, acting as the approval body to recognize documents developed by other national organizations as American National Standards, acting as the US representative in international and regional standards efforts, and serving as a clearinghouse for national and international standards development information. [HL7]</nciodm:CDISCDefinition>
                    <nciodm:PreferredTerm>American National Standards Institute</nciodm:PreferredTerm>
                </EnumeratedItem>
                <EnumeratedItem CodedValue="analysis dataset" nciodm:ExtCodeID="C142389">
                    <nciodm:CDISCDefinition>An organized collection of data or information with a common theme arranged in rows and columns and represented as a single file; comparable to a database table. NOTE: standardizing analysis datasets is intended to make review and assessment of analysis more consistent [ADaM].</nciodm:CDISCDefinition>
                    <nciodm:PreferredTerm>Analysis Dataset</nciodm:PreferredTerm>
                </EnumeratedItem>
                <EnumeratedItem CodedValue="analysis set" nciodm:ExtCodeID="C142390">
                    <nciodm:CDISCDefinition>A set of subjects whose data are to be included in the main analyses. This should be defined in the statistical section of the protocol. NOTE: There are a number of potential analysis sets, including, for example, the set based upon the intent-to-treat principle. [ICH E9]</nciodm:CDISCDefinition>
                    <nciodm:PreferredTerm>Analysis Set of Subjects</nciodm:PreferredTerm>
                </EnumeratedItem>
                <EnumeratedItem CodedValue="analysis variables" nciodm:ExtCodeID="C142391">
                    <nciodm:CDISCDefinition>Variables used to test the statistical hypotheses identified in the protocol and analysis plan; variables to be analyzed. See also variable.</nciodm:CDISCDefinition>
                    <nciodm:PreferredTerm>Analysis Variable</nciodm:PreferredTerm>
                </EnumeratedItem>
                <EnumeratedItem CodedValue="anchor" nciodm:ExtCodeID="C142436">
                    <nciodm:CDISCDefinition>Designation for a planned activity, often marking the transition between epochs or elements of a clinical study plan (e.g., "FPFV-first patient first visit").</nciodm:CDISCDefinition>
                    <nciodm:PreferredTerm>Clinical Study Anchor</nciodm:PreferredTerm>
                </EnumeratedItem>
                <EnumeratedItem CodedValue="anonymization" nciodm:ExtCodeID="C142392">
                    <nciodm:CDISCDefinition>The process of protecting privacy that removes the association between the identifying data and the data subject. In anonymized data, the patient cannot be identified by the recipient of the information. [ISO TS 25237:2008; TransCelerate Protection of Personal Data in Clinical Documents - A Model Approach]</nciodm:CDISCDefinition>
                    <nciodm:PreferredTerm>Anonymization</nciodm:PreferredTerm>
                </EnumeratedItem>
                <EnumeratedItem CodedValue="anticipated adverse event" nciodm:ExtCodeID="C156629">
                    <nciodm:CDISCDefinition>Other adverse events that are not study endpoints and are not "expected" (i.e., because they are not in the investigator's brochure) that can be anticipated to occur with some frequency during the course of the trial, regardless of drug exposure, depending on the patient population and disease under study. NOTE: Examples of such "anticipated" events include known consequences of the underlying disease or condition under investigation, events anticipated from any background regimen, or re-emergence or worsening of a condition relative to pretreatment baseline. [after FDA, Guidance for Industry and Investigators: Safety Reporting Requirements for INDs and BA/BE Studies]</nciodm:CDISCDefinition>
                    <nciodm:PreferredTerm>Anticipated Adverse Event</nciodm:PreferredTerm>
                </EnumeratedItem>
                <EnumeratedItem CodedValue="applet" nciodm:ExtCodeID="C142393">
                    <nciodm:CDISCDefinition>A small application, typically downloaded from a server.</nciodm:CDISCDefinition>
                    <nciodm:PreferredTerm>Applet</nciodm:PreferredTerm>
                </EnumeratedItem>
                <EnumeratedItem CodedValue="applicable regulatory requirement(s)" nciodm:ExtCodeID="C142394">
                    <nciodm:CDISCDefinition>Any law(s) or regulation(s) addressing the conduct of clinical trials of investigational products. [ICH E6(R2) Glossary, 1.4]</nciodm:CDISCDefinition>
                    <nciodm:PreferredTerm>Applicable Regulatory Requirement</nciodm:PreferredTerm>
                </EnumeratedItem>
                <EnumeratedItem CodedValue="approvable letter" nciodm:ExtCodeID="C142551">
                    <nciodm:CDISCDefinition>An official communication from FDA to an NDA/ BLA sponsor that lists issues to be resolved before an approval can be issued. [Modified from 21 CFR 314.3; Guidance to industry and FDA staff (10/08/2003)]</nciodm:CDISCDefinition>
                    <nciodm:PreferredTerm>FDA Approvable Letter</nciodm:PreferredTerm>
                </EnumeratedItem>
                <EnumeratedItem CodedValue="approval (in relation to Institutional Review Boards)" nciodm:ExtCodeID="C70800">
                    <nciodm:CDISCDefinition>The affirmative decision of the IRB that the clinical trial has been reviewed and may be conducted at the institution site within the constraints set forth by the IRB, the institution, good clinical practice (GCP), and the applicable regulatory requirements. [ICH E6]</nciodm:CDISCDefinition>
                    <nciodm:PreferredTerm>Institutional Review Board Approval</nciodm:PreferredTerm>
                </EnumeratedItem>
                <EnumeratedItem CodedValue="approval letter" nciodm:ExtCodeID="C70799">
                    <nciodm:CDISCDefinition>An official communication from FDA to inform an applicant of a decision to allow commercial marketing consistent with conditions of approval. [Modified from 21 CFR 314.3; Guidance to industry and FDA staff (10/08/2003)]</nciodm:CDISCDefinition>
                    <nciodm:PreferredTerm>Approval Document</nciodm:PreferredTerm>
                </EnumeratedItem>
                <EnumeratedItem CodedValue="arm (protocol)" nciodm:ExtCodeID="C15538">
                    <nciodm:CDISCDefinition>A planned path through the study that describes which treatments and/or controls apply to the subjects as they progress through the study. [After BRIDG] See also control, control group.</nciodm:CDISCDefinition>
                    <nciodm:PreferredTerm>Protocol Treatment Arm</nciodm:PreferredTerm>
                </EnumeratedItem>
                <EnumeratedItem CodedValue="artificial intelligence (AI)" nciodm:ExtCodeID="C16309">
                    <nciodm:CDISCDefinition>A system's ability to correctly interpret external data, to learn from such data, and to use those learnings to achieve specific goals and tasks through flexible adaptation. [Kaplan, A; Haenlein, M (1 January 2019) Business Horizons; IEEE-USA POSITION STATEMENT. Artificial Intelligence Research, Development &amp; Regulation Adopted by the IEEE-USA, Board of Directors (February 2017)] See also machine learning, deep learning, natural language processing, synthetic data.</nciodm:CDISCDefinition>
                    <nciodm:PreferredTerm>Artificial Intelligence</nciodm:PreferredTerm>
                </EnumeratedItem>
                <EnumeratedItem CodedValue="assessment" nciodm:ExtCodeID="C25217">
                    <nciodm:CDISCDefinition>A measurement, evaluation, or judgment for a study variable pertaining to the status of a subject. NOTE: Assessments are usually measured at a certain time, and usually are not compounded significantly by combining several simultaneous measurements to form a derived assessment (e.g., BMI) or a result of statistical analysis. The term assessment is intended to invoke some degree of evaluation or judgment concerning subject status. Refer to COA glossary of terms. See also variable, outcome, endpoint. [After Clinical Outcome Assessment (COA) Glossary of Terms FDA FDA eCOA Glossary]</nciodm:CDISCDefinition>
                    <nciodm:PreferredTerm>Assessment</nciodm:PreferredTerm>
                </EnumeratedItem>
                <EnumeratedItem CodedValue="attributable" nciodm:ExtCodeID="C25358">
                    <nciodm:CDISCDefinition>A quality by which records and data can be traced back to the subject to whom they pertain, as well as to those persons who have acted on the records.</nciodm:CDISCDefinition>
                    <nciodm:PreferredTerm>Attribution</nciodm:PreferredTerm>
                </EnumeratedItem>
                <EnumeratedItem CodedValue="attribute (n)" nciodm:ExtCodeID="C62618">
                    <nciodm:CDISCDefinition>In data modeling, refers to specific items of data that can be collected for a class.</nciodm:CDISCDefinition>
                    <nciodm:PreferredTerm>Computer Programming Object Attribute</nciodm:PreferredTerm>
                </EnumeratedItem>
                <EnumeratedItem CodedValue="audit certificate" nciodm:ExtCodeID="C115469">
                    <nciodm:CDISCDefinition>Document that certifies that an audit has taken place (at an investigative site, CRO, or clinical research department of a pharmaceutical company). [ICH E6 Glossary]</nciodm:CDISCDefinition>
                    <nciodm:PreferredTerm>Audit Certificate</nciodm:PreferredTerm>
                </EnumeratedItem>
                <EnumeratedItem CodedValue="audit report" nciodm:ExtCodeID="C142395">
                    <nciodm:CDISCDefinition>A written evaluation by the auditor of the results of the audit. [Modified from ICH E6 Glossary]</nciodm:CDISCDefinition>
                    <nciodm:PreferredTerm>Audit Report</nciodm:PreferredTerm>
                </EnumeratedItem>
                <EnumeratedItem CodedValue="audit trail" nciodm:ExtCodeID="C142396">
                    <nciodm:CDISCDefinition>A process that captures details such as additions, deletions, or alterations of information in an electronic record without obliterating the original record. An audit trail facilitates the reconstruction of the history of such actions relating to the electronic record. [after ICH E6, CSUICI]</nciodm:CDISCDefinition>
                    <nciodm:PreferredTerm>Audit Trail</nciodm:PreferredTerm>
                </EnumeratedItem>
                <EnumeratedItem CodedValue="audit" nciodm:ExtCodeID="C45269">
                    <nciodm:CDISCDefinition>A systematic and independent examination of trial-related activities and documents to determine whether the evaluated trial-related activities were conducted and the data were recorded, analyzed, and accurately reported according to the protocol, sponsor's standard operating procedures (SOPs), good clinical practice (GCP), and the applicable regulatory requirement(s). [ICH E6 Glossary]</nciodm:CDISCDefinition>
                    <nciodm:PreferredTerm>Audit</nciodm:PreferredTerm>
                </EnumeratedItem>
                <EnumeratedItem CodedValue="authorised auxiliary medicinal product" nciodm:ExtCodeID="C156618">
                    <nciodm:CDISCDefinition>A medicinal product that is currently authorised for marketing in a country or region, that is related to the specific needs of the clinical trial as described in the protocol, but not as an investigational medicinal product, regardless of labelling of the auxiliary medicinal product. [after EU CTR]</nciodm:CDISCDefinition>
                    <nciodm:PreferredTerm>Authorized Auxiliary Medicinal Product</nciodm:PreferredTerm>
                </EnumeratedItem>
                <EnumeratedItem CodedValue="authorised investigational medicinal product" nciodm:ExtCodeID="C156617">
                    <nciodm:CDISCDefinition>A medicinal product that is currently authorised for marketing in a country or region and used as an investigational medicinal product, irrespective of changes to the labelling of the medicinal product. [after EU CTR]</nciodm:CDISCDefinition>
                    <nciodm:PreferredTerm>Authorized Investigational Medicinal Product</nciodm:PreferredTerm>
                </EnumeratedItem>
                <EnumeratedItem CodedValue="authorization" nciodm:ExtCodeID="C41192">
                    <nciodm:CDISCDefinition>The process of giving someone permission to do or have something. In multi-user computer systems, a system administrator defines for the system which users are allowed access to the system and what privileges of use are permitted. [HL7 EHR-S FM Glossary of Terms, 2010].</nciodm:CDISCDefinition>
                    <nciodm:PreferredTerm>Authorization</nciodm:PreferredTerm>
                </EnumeratedItem>
                <EnumeratedItem CodedValue="auxiliary medicinal product" nciodm:ExtCodeID="C156473">
                    <nciodm:CDISCDefinition>A medicinal product that is related to the specific needs of the clinical trial as described in the protocol, but not as an investigational medicinal product. NOTE: Auxiliary medicinal products may be authorised for marketing in a country or region or non-authorised. [after EU-CTR]</nciodm:CDISCDefinition>
                    <nciodm:PreferredTerm>Auxiliary Medicinal Product</nciodm:PreferredTerm>
                </EnumeratedItem>
                <EnumeratedItem CodedValue="back translation (natural language)" nciodm:ExtCodeID="C142397">
                    <nciodm:CDISCDefinition>The process of translating a document that was translated from one language to another back to the original language. Used to ensure that consent forms, surveys, and other clinical trial documents will be clear and accurate in the translated form.</nciodm:CDISCDefinition>
                    <nciodm:PreferredTerm>Back Translation</nciodm:PreferredTerm>
                </EnumeratedItem>
                <EnumeratedItem CodedValue="background material" nciodm:ExtCodeID="C142649">
                    <nciodm:CDISCDefinition>Information pertinent to the understanding of a protocol. NOTE: Examples include investigator brochure, literature review, history, rationale, or other documentation that places a study in context or presents critical features.</nciodm:CDISCDefinition>
                    <nciodm:PreferredTerm>Protocol Background Material</nciodm:PreferredTerm>
                </EnumeratedItem>
                <EnumeratedItem CodedValue="background treatment" nciodm:ExtCodeID="C165822">
                    <nciodm:CDISCDefinition>Medicinal products that are administered to each clinical trial subject, regardless of randomization group, a) to treat the indication which is the object of the study, or b) required in the protocol as part of standard care for a condition that is not the indication under investigation, and is relevant for the clinical trial design. [After Recommendations from the expert group on clinical trials for the implementation of Regulation (EU) No 536/2014' dd 28 June 2017]</nciodm:CDISCDefinition>
                    <nciodm:PreferredTerm>Background Treatment</nciodm:PreferredTerm>
                </EnumeratedItem>
                <EnumeratedItem CodedValue="balanced study" nciodm:ExtCodeID="C142398">
                    <nciodm:CDISCDefinition>Trial in which a particular type of subject is equally represented in each study group.</nciodm:CDISCDefinition>
                    <nciodm:PreferredTerm>Balanced Study</nciodm:PreferredTerm>
                </EnumeratedItem>
                <EnumeratedItem CodedValue="bandwidth" nciodm:ExtCodeID="C142399">
                    <nciodm:CDISCDefinition>An indicator of the throughput (speed) of data flow on a transmission path; the width of the range of frequencies on which a transmission medium carries electronic signals. All digital and analog signal channels have a bandwidth.</nciodm:CDISCDefinition>
                    <nciodm:PreferredTerm>Bandwidth</nciodm:PreferredTerm>
                </EnumeratedItem>
                <EnumeratedItem CodedValue="baseline assessment" nciodm:ExtCodeID="C142400">
                    <nciodm:CDISCDefinition>Assessment of subjects as they enter a trial and before they receive any treatment.</nciodm:CDISCDefinition>
                    <nciodm:PreferredTerm>Baseline Assessment</nciodm:PreferredTerm>
                </EnumeratedItem>
                <EnumeratedItem CodedValue="baseline characteristics" nciodm:ExtCodeID="C142401">
                    <nciodm:CDISCDefinition>Demographic, clinical, and other data collected for each participant at the beginning of the trial before the intervention is administered. NOTE: Randomized, controlled trials aim to compare groups of participants that differ only with respect to the intervention (treatment). although proper random assignment prevents selection bias, it does not guarantee that the groups are equivalent at baseline. any differences in baseline characteristics are, however, the result of chance rather than bias. The study groups should be compared at baseline for important demographic and clinical characteristics. Baseline data may be especially valuable when the outcome measure can also be measured at the start of the trial. [CONSORT statement]</nciodm:CDISCDefinition>
                    <nciodm:PreferredTerm>Baseline Characteristics</nciodm:PreferredTerm>
                </EnumeratedItem>
                <EnumeratedItem CodedValue="baseline imbalance" nciodm:ExtCodeID="C142402">
                    <nciodm:CDISCDefinition>A systematic error in creating intervention groups, such that they differ with respect to prognosis. That is, the groups differ in measured or unmeasured baseline characteristics because of the way participants were selected or assigned. NOTE: also used to mean that the participants are not representative of the population of all possible participants. [ICH E9]</nciodm:CDISCDefinition>
                    <nciodm:PreferredTerm>Baseline Imbalance</nciodm:PreferredTerm>
                </EnumeratedItem>
                <EnumeratedItem CodedValue="basket protocol" nciodm:ExtCodeID="C165823">
                    <nciodm:CDISCDefinition>A type of master protocol designed to test a single investigational drug or drug combination in different populations defined by disease stage, histology, number of prior therapies, genetic or other biomarkers, or demographic characteristics. [After FDA DRAFT Guidance: Master Protocols: Efficient Clinical Trial Design Strategies to Expedite Development of Oncology Drugs and Biologics. September 2018 and Woodcock J, LaVange LM. Master Protocols to Study Multiple Therapies, Multiple Diseases, or Both. N Engl J Med. 2017 Jul 6;377(1):62-70.] See also master protocol.</nciodm:CDISCDefinition>
                    <nciodm:PreferredTerm>Basket Protocol</nciodm:PreferredTerm>
                </EnumeratedItem>
                <EnumeratedItem CodedValue="Bayesian approaches" nciodm:ExtCodeID="C142403">
                    <nciodm:CDISCDefinition>Approaches to data analysis that provide a posterior probability distribution for some parameter (e.g., treatment effect), derived from the observed data and a prior probability distribution for the parameter. The posterior distribution is then used as the basis for statistical inference. [ICH E9 Glossary]</nciodm:CDISCDefinition>
                    <nciodm:PreferredTerm>Bayesian Approach</nciodm:PreferredTerm>
                </EnumeratedItem>
                <EnumeratedItem CodedValue="Bayesian statistics" nciodm:ExtCodeID="C142404">
                    <nciodm:CDISCDefinition>Statistical approach named for Thomas Bayes (1701-1761) that has among its features giving a subjective interpretation to probability, accepting the idea that it is possible to talk about the probability of hypotheses being true and of parameters having particular values.</nciodm:CDISCDefinition>
                    <nciodm:PreferredTerm>Bayesian Statistics</nciodm:PreferredTerm>
                </EnumeratedItem>
                <EnumeratedItem CodedValue="beta error" nciodm:ExtCodeID="C142405">
                    <nciodm:CDISCDefinition>Probability of showing no significant difference when a true difference exists; a false acceptance of the null hypothesis. See also Type 2 error. [AMA Manual of style]</nciodm:CDISCDefinition>
                    <nciodm:PreferredTerm>Beta Error</nciodm:PreferredTerm>
                </EnumeratedItem>
                <EnumeratedItem CodedValue="bias" nciodm:ExtCodeID="C28232">
                    <nciodm:CDISCDefinition>Bias refers to defects in study design, measurement, analysis or interpretation such that they cause a result to depart from the true value in a consistent direction. [after AMA Manual of style, ICH E9, CONSORT Statement]</nciodm:CDISCDefinition>
                    <nciodm:PreferredTerm>Bias</nciodm:PreferredTerm>
                </EnumeratedItem>
                <EnumeratedItem CodedValue="bioanalytical assays" nciodm:ExtCodeID="C16341">
                    <nciodm:CDISCDefinition>Methods for quantitative measurement of a drug, drug metabolites, or chemicals in biological fluids.</nciodm:CDISCDefinition>
                    <nciodm:PreferredTerm>Bioassay</nciodm:PreferredTerm>
                </EnumeratedItem>
                <EnumeratedItem CodedValue="bioavailability" nciodm:ExtCodeID="C70913">
                    <nciodm:CDISCDefinition>Rate and extent to which a drug is absorbed or is otherwise available to the treatment site in the body.</nciodm:CDISCDefinition>
                    <nciodm:PreferredTerm>Bioavailability</nciodm:PreferredTerm>
                </EnumeratedItem>
                <EnumeratedItem CodedValue="bioequivalence" nciodm:ExtCodeID="C71763">
                    <nciodm:CDISCDefinition>Scientific basis on which drugs with the same active ingredient(s) are compared. NOTE: To be considered bioequivalent, the bioavailability of two products must not differ significantly when the two products are given in studies at the same dosage under similar conditions.</nciodm:CDISCDefinition>
                    <nciodm:PreferredTerm>Bioequivalence</nciodm:PreferredTerm>
                </EnumeratedItem>
                <EnumeratedItem CodedValue="biological product" nciodm:ExtCodeID="C307">
                    <nciodm:CDISCDefinition>A product of biological origin applicable to the prevention, treatment, or cure of a disease or condition. Such products may include virus, therapeutic serum, toxin, antitoxin, vaccine, blood, blood component or derivative, allergenic product, protein, or analogous product. NOTE: Biological products may be produced through biotechnology in a living system, such as a microorganism, plant cell, or animal cell. Biological products are generally large, complex molecules and are often more difficult to characterize than small molecule drugs. [After 21 CFR 600.3; After FDA Biological Product Definitions] See also vaccine, cell therapy, gene therapy, pharmaceutical product, drug product, medicinal product.</nciodm:CDISCDefinition>
                    <nciodm:PreferredTerm>Biological Agent</nciodm:PreferredTerm>
                </EnumeratedItem>
                <EnumeratedItem CodedValue="Biologics licensing application (BLA)" nciodm:ExtCodeID="C71778">
                    <nciodm:CDISCDefinition>Biologics licensing application (BLA). an application to FDA for a license to market a new biologic product in the United states.</nciodm:CDISCDefinition>
                    <nciodm:PreferredTerm>Biologics License Application</nciodm:PreferredTerm>
                </EnumeratedItem>
                <EnumeratedItem CodedValue="biomarker" nciodm:ExtCodeID="C16342">
                    <nciodm:CDISCSynonym>biological marker</nciodm:CDISCSynonym>
                    <nciodm:CDISCDefinition>A defined characteristic that is measured as an indicator of normal biological processes, pathogenic processes, or responses to an exposure or intervention, including therapeutic interventions. Molecular, histologic, radiographic, or physiologic characteristics are types of biomarkers. A biomarker is not an assessment of how an individual feels, functions, or survives. Categories of biomarkers include: susceptibility/risk biomarker; diagnostic biomarker; monitoring biomarker; prognostic biomarker; predictive biomarker; safety biomarker; pharmacodynamic/response biomarker. [NIH-FDA BEST (Biomarkers, Endpoints, and other Tools) Resource, https://www.ncbi.nlm.nih.gov/books/NBK338448/]</nciodm:CDISCDefinition>
                    <nciodm:PreferredTerm>Biomarker</nciodm:PreferredTerm>
                </EnumeratedItem>
                <EnumeratedItem CodedValue="biometric signature" nciodm:ExtCodeID="C142406">
                    <nciodm:CDISCDefinition>A signature based on the verification of an individual's identity, based on measurement of the individual's physical feature(s) or repeatable action(s), where those features and/or actions are both unique to that individual, and measureable [21 CFR 11]</nciodm:CDISCDefinition>
                    <nciodm:PreferredTerm>Biometric Signature</nciodm:PreferredTerm>
                </EnumeratedItem>
                <EnumeratedItem CodedValue="biosimilar" nciodm:ExtCodeID="C156644">
                    <nciodm:CDISCDefinition>A biological product that is highly similar to the reference product notwithstanding minor differences in clinically inactive components. This requires that there are no clinically meaningful differences between the biological product and the reference product in terms of the safety, purity, and potency of the product (see section 351(i)(2) of the PHS Act). [after FDA, Guidance for Industry: Quality Considerations in Demonstrating Biosimilarity of a Therapeutic Protein Product to a Reference Product]</nciodm:CDISCDefinition>
                    <nciodm:PreferredTerm>Biosimilar</nciodm:PreferredTerm>
                </EnumeratedItem>
                <EnumeratedItem CodedValue="biostatistics" nciodm:ExtCodeID="C16347">
                    <nciodm:CDISCDefinition>Branch of statistics applied to the analysis of biological phenomena.</nciodm:CDISCDefinition>
                    <nciodm:PreferredTerm>Biostatistics</nciodm:PreferredTerm>
                </EnumeratedItem>
                <EnumeratedItem CodedValue="blind review" nciodm:ExtCodeID="C142407">
                    <nciodm:CDISCDefinition>Checking and assessing data prior to breaking the blind, for the purpose of finalizing the planned analysis. [Modified ICH E9]</nciodm:CDISCDefinition>
                    <nciodm:PreferredTerm>Blind Review</nciodm:PreferredTerm>
                </EnumeratedItem>
                <EnumeratedItem CodedValue="blinded (masked) medications" nciodm:ExtCodeID="C142408">
                    <nciodm:CDISCDefinition>Products that appear identical in size, shape, color, flavor, and other attributes to make it very difficult for subjects and investigators (or anyone assessing the outcome) to determine which medication is being administered.</nciodm:CDISCDefinition>
                    <nciodm:PreferredTerm>Blinded Medication</nciodm:PreferredTerm>
                </EnumeratedItem>
                <EnumeratedItem CodedValue="blinded study" nciodm:ExtCodeID="C70840">
                    <nciodm:CDISCDefinition>A study in which the subject, the investigator, or anyone assessing the outcome is unaware of the treatment assignment(s). NOTE: Blinding is used to reduce the potential for bias. [Modified ICH E6 Glossary] See also blinding/masking, double-blind study, single-blind study, triple-blind study; contrast with open-label or unblinded study.</nciodm:CDISCDefinition>
                    <nciodm:PreferredTerm>Blinded Clinical Study</nciodm:PreferredTerm>
                </EnumeratedItem>
                <EnumeratedItem CodedValue="blinding" nciodm:ExtCodeID="C49068">
                    <nciodm:CDISCSynonym>masking</nciodm:CDISCSynonym>
                    <nciodm:CDISCDefinition>A procedure to limit bias by preventing subjects and/ or study personnel from identifying which treatments or procedures are administered, or from learning the results of tests and measures undertaken as part of a clinical investigation. NOTE: Masking, while often used synonymously with blinding, usually denotes concealing the specific study intervention used. [After ICH E6 (R2) Glossary, 1.10]. The term masking is often preferred to blinding in the field of ophthalmology. [from AMA Manual of Style]. See also double-blind study, single-blind study, triple-blind study. Contrast with open-label and/or unblinded study.</nciodm:CDISCDefinition>
                    <nciodm:PreferredTerm>Blinded</nciodm:PreferredTerm>
                </EnumeratedItem>
                <EnumeratedItem CodedValue="branch" nciodm:ExtCodeID="C142701">
                    <nciodm:CDISCDefinition>Point within a study design where there is an allocation of subject subsets to particular procedures or treatment groups.</nciodm:CDISCDefinition>
                    <nciodm:PreferredTerm>Study Branch</nciodm:PreferredTerm>
                </EnumeratedItem>
                <EnumeratedItem CodedValue="browser" nciodm:ExtCodeID="C80012">
                    <nciodm:CDISCDefinition>Computer program that runs on the user's desktop computer and is used to navigate the World Wide Web. See also web browser.</nciodm:CDISCDefinition>
                    <nciodm:PreferredTerm>HTML Browser</nciodm:PreferredTerm>
                </EnumeratedItem>
                <EnumeratedItem CodedValue="cache" nciodm:ExtCodeID="C63626">
                    <nciodm:CDISCDefinition>Storage area on a computer's hard drive where the browser stores (for a limited time) web pages and/or graphic elements.</nciodm:CDISCDefinition>
                    <nciodm:PreferredTerm>Memory Cache</nciodm:PreferredTerm>
                </EnumeratedItem>
                <EnumeratedItem CodedValue="carry-over effect" nciodm:ExtCodeID="C142409">
                    <nciodm:CDISCDefinition>Effects of treatment that persist after treatment has been stopped, sometimes beyond the time of a medication's known biological activity.</nciodm:CDISCDefinition>
                    <nciodm:PreferredTerm>Carry-Over Effect</nciodm:PreferredTerm>
                </EnumeratedItem>
                <EnumeratedItem CodedValue="case history" nciodm:ExtCodeID="C142588">
                    <nciodm:CDISCDefinition>An adequate and accurate record prepared and maintained by an investigator that records all observations and other data pertinent to the investigation of each individual administered the investigational drug (device or other therapy) or employed as a control in the investigation. NOTE: Case histories include the case report forms and supporting data including, for example, signed and dated consent forms and medical records including, for example, progress notes of the physician, the individual's hospital chart(s), and the nurses' notes. The case history for each individual shall document that informed consent was obtained prior to participation in the study. [21 CFR 312.62(b)]</nciodm:CDISCDefinition>
                    <nciodm:PreferredTerm>Investigational Subject Case History</nciodm:PreferredTerm>
                </EnumeratedItem>
                <EnumeratedItem CodedValue="case report form (CRF)" nciodm:ExtCodeID="C40988">
                    <nciodm:CDISCSynonym>case record form</nciodm:CDISCSynonym>
                    <nciodm:CDISCDefinition>A printed, optical, or electronic document designed to record all of the protocol-required information to be reported to the sponsor for each trial subject. NOTE: In common usage, CRF can refer to either a CRF page, which denotes a group of one or more data items, linked together for collection and display, or a casebook, which includes the entire group of CRF pages on which a set of clinical study observations can be or have been collected by completion of such CRF pages for a subject in a clinical study. See also CRF (paper), eCRF. [ICH E6 Glossary, FDA Final Guidance on eSource].</nciodm:CDISCDefinition>
                    <nciodm:PreferredTerm>Case Report Form</nciodm:PreferredTerm>
                </EnumeratedItem>
                <EnumeratedItem CodedValue="case report tabulations (CRT)" nciodm:ExtCodeID="C142411">
                    <nciodm:CDISCDefinition>In a paper submission, listings of data that may be organized by domain (type of data) or by subject. See also eCRT.</nciodm:CDISCDefinition>
                    <nciodm:PreferredTerm>Case Report Tabulation</nciodm:PreferredTerm>
                </EnumeratedItem>
                <EnumeratedItem CodedValue="case-control study" nciodm:ExtCodeID="C15197">
                    <nciodm:CDISCDefinition>Retrospective study in which individuals with an outcome (cases) are compared with those who do not have the outcome (controls). The outcome variable (disease, event, experience, biomarker) is chosen first, and the exposure is evaluated in cases vs controls to see whether there is an association between exposure and outcome. [After AMA Manual of Style] See also outcome, observational study.</nciodm:CDISCDefinition>
                    <nciodm:PreferredTerm>Case-Control Study</nciodm:PreferredTerm>
                </EnumeratedItem>
                <EnumeratedItem CodedValue="categorical data" nciodm:ExtCodeID="C142412">
                    <nciodm:CDISCDefinition>Data evaluated by sorting values (for example, severe, moderate, and mild) into various categories.</nciodm:CDISCDefinition>
                    <nciodm:PreferredTerm>Categorical Data</nciodm:PreferredTerm>
                </EnumeratedItem>
                <EnumeratedItem CodedValue="causality assessment" nciodm:ExtCodeID="C142413">
                    <nciodm:CDISCDefinition>An evaluation performed by a medical professional concerning the likelihood that a therapy or product under study caused or contributed to an adverse event.</nciodm:CDISCDefinition>
                    <nciodm:PreferredTerm>Causality Assessment</nciodm:PreferredTerm>
                </EnumeratedItem>
                <EnumeratedItem CodedValue="CDISC SHARE" nciodm:ExtCodeID="C142415">
                    <nciodm:CDISCDefinition>A global, accessible, electronic library, which, through advanced technology, enables precise and standardized data element definitions that can be used within applications and across studies to improve biomedical research and its link with healthcare. In the first iteration, CDISC SHARE will contain the existing CDISC standards, such as CDASH and SDTM, providing machine-readable elements (variables) within those standards. This will allow a range of applications used within organizations to automatically access those definitions. [CDISC]</nciodm:CDISCDefinition>
                    <nciodm:PreferredTerm>CDISC Shared Health And Research Electronic Library</nciodm:PreferredTerm>
                </EnumeratedItem>
                <EnumeratedItem CodedValue="CDISC standards" nciodm:ExtCodeID="C142416">
                    <nciodm:CDISCDefinition>A set of models, implementation guides, controlled vocabularies, and exchange formats developed by the Clinical Data Interchange Standards Consortium (CDISC), which are intended to provide for consistent use of common representations of data, terms and specifications. NOTE: These standards apply to translational research, electronic submission of clinical data, and the life-cycle of clinical product development, which includes protocol representation, data collection, aggregation, tabulation, and analysis and unambiguous information exchange across disparate systems. [After https://www.ncbi.nlm.nih.gov]. See also standard, data standards, Study Data Standardization Plan, and Standards Development Organization.</nciodm:CDISCDefinition>
                    <nciodm:PreferredTerm>CDISC Standard</nciodm:PreferredTerm>
                </EnumeratedItem>
                <EnumeratedItem CodedValue="cell therapy" nciodm:ExtCodeID="C70601">
                    <nciodm:CDISCDefinition>The prevention or treatment of human disease by the administration of cells that have been selected, multiplied, and pharmacologically treated or altered outside the body (ex vivo), or methods (pharmacological as well as nonpharmacological) to modify the function of intrinsic cells of the body for therapeutic purposes (in vivo). NOTE: Cell therapies can be classified based on therapeutic indication, cell type, source of cells, and underlying technology, among others, in medical and regulatory contexts. [After https://www.sciencedirect.com/topics/neuroscience/cell-therapy; After Regulation (EC) No 1394/2007 of the European Parliament and of the Council of 13 November 2007.] See also regenerative medicine therapy, regenerative medicine advanced therapy, gene therapy, biological product.</nciodm:CDISCDefinition>
                    <nciodm:PreferredTerm>Cellular Therapy</nciodm:PreferredTerm>
                </EnumeratedItem>
                <EnumeratedItem CodedValue="certified copy" nciodm:ExtCodeID="C142417">
                    <nciodm:CDISCDefinition>A copy (irrespective of the type of media used) of the original record that has been verified (i.e., by a dated signature or by generation through a validated process) to have the same information, including data that describe the context, content, and structure, as the original. [ICH E6 (R2)]</nciodm:CDISCDefinition>
                    <nciodm:PreferredTerm>Certified Copy</nciodm:PreferredTerm>
                </EnumeratedItem>
                <EnumeratedItem CodedValue="certified IRB professional (CIP)" nciodm:ExtCodeID="C142418">
                    <nciodm:CDISCDefinition>Persons certified to participate on an institutional review board, who satisfy the educational and employment requirements and pass an examination conducted by the applied Research ethics national association (aRena), the membership division of Public Responsibility in Medicine and Research (PRiM&amp;R).</nciodm:CDISCDefinition>
                    <nciodm:PreferredTerm>Certified IRB Professional</nciodm:PreferredTerm>
                </EnumeratedItem>
                <EnumeratedItem CodedValue="challenge agent" nciodm:ExtCodeID="C158128">
                    <nciodm:CDISCDefinition>A non-investigational medicinal product (NIMP) given to trial subjects to produce a physiological response that is necessary before the pharmacological action of the investigational medicinal product can be assessed. [After Recommendations from the expert group on clinical trials for the implementation of Regulation (EU) No 536/2014' dd 28 June 2017]</nciodm:CDISCDefinition>
                    <nciodm:PreferredTerm>Challenge Agent</nciodm:PreferredTerm>
                </EnumeratedItem>
                <EnumeratedItem CodedValue="CHI (consolidated health informatics)" nciodm:ExtCodeID="C156647">
                    <nciodm:CDISCDefinition>CHI began as an eGov initiative to establish a portfolio of existing health information interoperability standards (health vocabulary and messaging) enabling all agencies in the federal health enterprise to "speak the same language" based on common enterprise-wide business and information technology architectures. CHI is currently managed under the Office of the National Coordinator for Health Informational Technology's (ONC) Federal Health Architecture (FHA) Program Management Office. Ref: The United States Health Information Knowledgebase [USHIK]. [HITSP]</nciodm:CDISCDefinition>
                    <nciodm:PreferredTerm>Consolidated Health Informatics</nciodm:PreferredTerm>
                </EnumeratedItem>
                <EnumeratedItem CodedValue="class" nciodm:ExtCodeID="C41106">
                    <nciodm:CDISCDefinition>A definition of objects with properties (attributes, methods, relationships) that all objects in the class have in common. [HL7, 2001] in data modeling, a class defines a set of objects that share the same attributes, relationships, and semantics. A class is usually an entity that represents a person, place, or thing.</nciodm:CDISCDefinition>
                    <nciodm:PreferredTerm>Object Class</nciodm:PreferredTerm>
                </EnumeratedItem>
                <EnumeratedItem CodedValue="clean database" nciodm:ExtCodeID="C142419">
                    <nciodm:CDISCDefinition>A set of reviewed data in which errors have been resolved to meet QA requirements for error rate and in which measurements and other values are provided in acceptable units; database that is ready to be locked. See also database lock, clean file.</nciodm:CDISCDefinition>
                    <nciodm:PreferredTerm>Clean Database</nciodm:PreferredTerm>
                </EnumeratedItem>
                <EnumeratedItem CodedValue="clean file" nciodm:ExtCodeID="C142420">
                    <nciodm:CDISCDefinition>When all data cleaning is completed and database is ready for quality review and unblinding.</nciodm:CDISCDefinition>
                    <nciodm:PreferredTerm>Clean File</nciodm:PreferredTerm>
                </EnumeratedItem>
                <EnumeratedItem CodedValue="client" nciodm:ExtCodeID="C142421">
                    <nciodm:CDISCDefinition>A program that makes a service request of another program, usually running on a server, that fulfills the request. Web browsers (such as Firefox and Microsoft explorer) are clients that request HTML files from web servers.</nciodm:CDISCDefinition>
                    <nciodm:PreferredTerm>Client Computer</nciodm:PreferredTerm>
                </EnumeratedItem>
                <EnumeratedItem CodedValue="clinical benefit" nciodm:ExtCodeID="C142422">
                    <nciodm:CDISCDefinition>A therapeutic intervention may be said to confer clinical benefit if it prolongs life, improves function, and/or improves the way a subject feels.</nciodm:CDISCDefinition>
                    <nciodm:PreferredTerm>Clinical Benefit</nciodm:PreferredTerm>
                </EnumeratedItem>
                <EnumeratedItem CodedValue="clinical clarification" nciodm:ExtCodeID="C142423">
                    <nciodm:CDISCDefinition>A query resolution received from the sponsor staff (medical monitors, DSMB monitoring board, etc.). See also self-evident change.</nciodm:CDISCDefinition>
                    <nciodm:PreferredTerm>Clinical Clarification</nciodm:PreferredTerm>
                </EnumeratedItem>
                <EnumeratedItem CodedValue="clinical data" nciodm:ExtCodeID="C15783">
                    <nciodm:CDISCDefinition>Data pertaining to the medical well-being or status of a patient. Category also includes clinical reports and individual patient data (IPD) as defined in the EMA Policy 0070 Implementation Guide. [http://www.ema.eoropa.eu/docs/en_GB/document_library/REPORT/2014/10/WC500174378.PDF]</nciodm:CDISCDefinition>
                    <nciodm:PreferredTerm>Clinical Data</nciodm:PreferredTerm>
                </EnumeratedItem>
                <EnumeratedItem CodedValue="clinical development plan" nciodm:ExtCodeID="C142424">
                    <nciodm:CDISCDefinition>A document that describes the collection of clinical studies that are to be performed in sequence, or in parallel, with a particular active substance, device, procedure, or treatment strategy, typically with the intention of submitting them as part of an application for a marketing authorization. NOTE: The plan should have appropriate decision points and allow modification as knowledge accumulates. [from ICH E9] See also development plan.</nciodm:CDISCDefinition>
                    <nciodm:PreferredTerm>Clinical Development Plan</nciodm:PreferredTerm>
                </EnumeratedItem>
                <EnumeratedItem CodedValue="clinical document architecture" nciodm:ExtCodeID="C142426">
                    <nciodm:CDISCDefinition>Specification for the structure and semantics of "clinical documents" for the purpose of exchange. [HL7; SPL]</nciodm:CDISCDefinition>
                    <nciodm:PreferredTerm>Clinical Document Architecture</nciodm:PreferredTerm>
                </EnumeratedItem>
                <EnumeratedItem CodedValue="clinical document" nciodm:ExtCodeID="C142425">
                    <nciodm:CDISCDefinition>A documentation of clinical observations and services. NOTE: an electronic document should incorporate the following characteristics: persistence, stewardship, potential for authentication, wholeness, and human readability. [SPL]</nciodm:CDISCDefinition>
                    <nciodm:PreferredTerm>Clinical Document</nciodm:PreferredTerm>
                </EnumeratedItem>
                <EnumeratedItem CodedValue="clinical efficacy" nciodm:ExtCodeID="C39547">
                    <nciodm:CDISCDefinition>Power or capacity to produce a desired effect (i.e., appropriate pharmacological activity in a specified indication) in humans. [SQA]</nciodm:CDISCDefinition>
                    <nciodm:PreferredTerm>Treatment Efficacy</nciodm:PreferredTerm>
                </EnumeratedItem>
                <EnumeratedItem CodedValue="clinical encounter" nciodm:ExtCodeID="C142427">
                    <nciodm:CDISCDefinition>Contact between subject/patient and healthcare practitioner/researcher, during which an assessment or activity is performed. Contact may be physical or virtual. [CDISC]</nciodm:CDISCDefinition>
                    <nciodm:PreferredTerm>Clinical Encounter</nciodm:PreferredTerm>
                </EnumeratedItem>
                <EnumeratedItem CodedValue="clinical hold (of a clinical trial)" nciodm:ExtCodeID="C70755">
                    <nciodm:CDISCDefinition>An order issued by FDA to the sponsor to delay a proposed clinical investigation or to suspend an ongoing investigation. NOTE: The clinical hold order may apply to one or more of the investigations covered by an IND. [21 CFR 312.42] See also suspension (of a clinical trial), termination (of a clinical trial), temporary halt (of a clinical trial).</nciodm:CDISCDefinition>
                    <nciodm:PreferredTerm>Study on Hold</nciodm:PreferredTerm>
                </EnumeratedItem>
                <EnumeratedItem CodedValue="clinical investigation" nciodm:ExtCodeID="C142430">
                    <nciodm:CDISCDefinition>Any experiment that involves a test article and one or more human subjects, and that either must meet the requirements for prior submission to the FDA or the results of which are intended to be later submitted to, or held for inspection by, the FDA as part of an application for a research or marketing permit. Considered synonymous with clinical research by FDA. See clinical study, clinical trial. [FDA Science &amp; Research]</nciodm:CDISCDefinition>
                    <nciodm:PreferredTerm>Clinical Investigation</nciodm:PreferredTerm>
                </EnumeratedItem>
                <EnumeratedItem CodedValue="clinical outcome assessment (COA) qualification" nciodm:ExtCodeID="C142552">
                    <nciodm:CDISCDefinition>A formal conclusion by FDA that, within the stated context of use, the results of the COA measurement can be relied upon to have a specific interpretation and application. NOTE: For qualified COAs, FDA permits drug developers to use the COA in the qualified context in IND and NDA/BLA submissions without requesting that the relevant CDER review group reconsider and reconfirm the suitability of the COA. [FDA Clinical Outcome Assessment (COA) Glossary]</nciodm:CDISCDefinition>
                    <nciodm:PreferredTerm>FDA Clinical Outcome Assessment Qualification</nciodm:PreferredTerm>
                </EnumeratedItem>
                <EnumeratedItem CodedValue="clinical outcome assessment (COA)" nciodm:ExtCodeID="C142378">
                    <nciodm:CDISCDefinition>Any assessment that may be influenced by human choices, judgment, or motivation and may support or refute treatment benefit. NOTE: Unlike biomarkers that rely completely on an automated process or algorithm, COAs reflect interpretation of reporting from a patient, a clinician, or an observer. There are four types of COAs. See also patient-reported outcome (PRO), clinician-reported outcome (ClinRO), observer-reported outcome (ObsRO), and performance outcome (PerfO). [FDA Clinical Outcome Assessment (COA) Glossary]</nciodm:CDISCDefinition>
                    <nciodm:PreferredTerm>Clinical Outcome Assessment</nciodm:PreferredTerm>
                </EnumeratedItem>
                <EnumeratedItem CodedValue="clinical pharmacology" nciodm:ExtCodeID="C16975">
                    <nciodm:CDISCDefinition>Science that deals with the characteristics, effects, properties, reactions, and uses of drugs, particularly their therapeutic value in humans, including their toxicology, safety, pharmacodynamics, and pharmacokinetics (ADME).</nciodm:CDISCDefinition>
                    <nciodm:PreferredTerm>Clinical Pharmacology</nciodm:PreferredTerm>
                </EnumeratedItem>
                <EnumeratedItem CodedValue="clinical research and development" nciodm:ExtCodeID="C142435">
                    <nciodm:CDISCDefinition>The testing of a drug compound in humans primarily done to determine its safety and pharmacological effectiveness. Clinical development is done in phases, which progress from very tightly controlled dosing of a small number of subjects to less tightly controlled studies involving large numbers of patients. [SQA]</nciodm:CDISCDefinition>
                    <nciodm:PreferredTerm>Clinical Research and Development</nciodm:PreferredTerm>
                </EnumeratedItem>
                <EnumeratedItem CodedValue="clinical research associate (CRA)" nciodm:ExtCodeID="C25465">
                    <nciodm:CDISCDefinition>Person employed by a sponsor or by a contract research organization acting on a sponsor's behalf, who monitors the progress of investigator sites participating in a clinical study. At some sites (primarily in academic settings), clinical research coordinators are called CRAs.</nciodm:CDISCDefinition>
                    <nciodm:PreferredTerm>Clinical Research Associate</nciodm:PreferredTerm>
                </EnumeratedItem>
                <EnumeratedItem CodedValue="clinical research coordinator (CRC)" nciodm:ExtCodeID="C51811">
                    <nciodm:CDISCSynonym>clinical coordinator</nciodm:CDISCSynonym>
                    <nciodm:CDISCSynonym>research coordinator</nciodm:CDISCSynonym>
                    <nciodm:CDISCSynonym>study coordinator</nciodm:CDISCSynonym>
                    <nciodm:CDISCSynonym>trial coordinator</nciodm:CDISCSynonym>
                    <nciodm:CDISCDefinition>Study site staff member who executes, manages, and coordinates research protocols in the clinic setting including screening, enrollment, monitoring of patient candidates/participants, and administration of informed consent. Other duties may be included depending on the study site.</nciodm:CDISCDefinition>
                    <nciodm:PreferredTerm>Clinical Coordinator</nciodm:PreferredTerm>
                </EnumeratedItem>
                <EnumeratedItem CodedValue="clinical research subject" nciodm:ExtCodeID="C70668">
                    <nciodm:CDISCDefinition>A person who is enrolled into a clinical study or trial. See also study, trial, and study population.</nciodm:CDISCDefinition>
                    <nciodm:PreferredTerm>Clinical Study Subject</nciodm:PreferredTerm>
                </EnumeratedItem>
                <EnumeratedItem CodedValue="clinical significance" nciodm:ExtCodeID="C82562">
                    <nciodm:CDISCDefinition>Change in a subject's clinical condition regarded as important whether or not due to the test intervention. NOTE: some statistically significant changes (in blood tests, for example) have no clinical significance. The criterion or criteria for clinical significance should be stated in the protocol. The term "clinical significance" is not advisable unless operationally defined.</nciodm:CDISCDefinition>
                    <nciodm:PreferredTerm>Clinical Significance</nciodm:PreferredTerm>
                </EnumeratedItem>
                <EnumeratedItem CodedValue="clinical study data element" nciodm:ExtCodeID="C142437">
                    <nciodm:CDISCDefinition>A single observation associated with a subject in a clinical study. A data element in an eCRF represents the smallest unit of observation captured for a subject in a clinical investigation. NOTE: Examples include birth date, white blood cell count, pain severity measure, and other clinical observations made and documented during a study. Data element identifiers should be attached to each data element as it is entered or transmitted by the originator into the eCRF. See also eCRF, data element identifier, data originator, item. [After FDA Guidance for Industry Electronic Source Data in Clinical Investigations , Body text and Glossary]</nciodm:CDISCDefinition>
                    <nciodm:PreferredTerm>Clinical Study Data Element</nciodm:PreferredTerm>
                </EnumeratedItem>
                <EnumeratedItem CodedValue="clinical study report" nciodm:ExtCodeID="C142439">
                    <nciodm:CDISCDefinition>A written description of a study of any therapeutic, prophylactic, or diagnostic agent conducted in human subjects, in which the clinical and statistical description, presentations, and analysis are fully integrated into a single report. NOTE: For further information, see the ICH Guideline for Structure and Content of Clinical Study Reports. [ICH E6 Glossary]</nciodm:CDISCDefinition>
                    <nciodm:PreferredTerm>Clinical Study Report</nciodm:PreferredTerm>
                </EnumeratedItem>
                <EnumeratedItem CodedValue="clinical study" nciodm:ExtCodeID="C15206">
                    <nciodm:CDISCDefinition>A clinical study involves research using human volunteers (also called participants) that is intended to add to medical knowledge. There are two main types of clinical studies: clinical trials (also called interventional studies) and observational studies. [ClinicalTrials.gov] See also clinical trial.</nciodm:CDISCDefinition>
                    <nciodm:PreferredTerm>Clinical Study</nciodm:PreferredTerm>
                </EnumeratedItem>
                <EnumeratedItem CodedValue="clinical trial authorization" nciodm:ExtCodeID="C142440">
                    <nciodm:CDISCDefinition>Authorization granted by a Medicines Regulatory Agency to conduct a clinical trial in a jurisdiction. NOTE: If an ethical committee allows a trial to proceed it is called an approval to proceed. [After ISO 11615:2017, 3.1.12]</nciodm:CDISCDefinition>
                    <nciodm:PreferredTerm>Clinical Trial Authorization</nciodm:PreferredTerm>
                </EnumeratedItem>
                <EnumeratedItem CodedValue="clinical trial data" nciodm:ExtCodeID="C142441">
                    <nciodm:CDISCDefinition>Data collected in the course of a clinical trial. See also clinical trial information.</nciodm:CDISCDefinition>
                    <nciodm:PreferredTerm>Clinical Trial Data</nciodm:PreferredTerm>
                </EnumeratedItem>
                <EnumeratedItem CodedValue="clinical trial exemption (CTX)" nciodm:ExtCodeID="C142446">
                    <nciodm:CDISCDefinition>A scheme that allows sponsors to apply for approval for each clinical study in turn, submitting supporting data to the Medicines Control Agency (MCA), which approves or rejects the application (generally within 35 working days). NOTE: Approval means that the company is exempt from the requirement to hold a clinical trial certificate (CTC). [UK]</nciodm:CDISCDefinition>
                    <nciodm:PreferredTerm>Clinical Trial Exemption</nciodm:PreferredTerm>
                </EnumeratedItem>
                <EnumeratedItem CodedValue="clinical trial information" nciodm:ExtCodeID="C142447">
                    <nciodm:CDISCDefinition>Data collected in the course of a clinical trial or documentation related to the integrity or administration of that data. A superset of clinical trial data.</nciodm:CDISCDefinition>
                    <nciodm:PreferredTerm>Clinical Trial Information</nciodm:PreferredTerm>
                </EnumeratedItem>
                <EnumeratedItem CodedValue="clinical trial materials" nciodm:ExtCodeID="C142449">
                    <nciodm:CDISCDefinition>Complete set of supplies provided to an investigator by the trial sponsor.</nciodm:CDISCDefinition>
                    <nciodm:PreferredTerm>Clinical Trial Material</nciodm:PreferredTerm>
                </EnumeratedItem>
                <EnumeratedItem CodedValue="clinical trial registry" nciodm:ExtCodeID="C142452">
                    <nciodm:CDISCDefinition>A web-based publicly accessible platform for providing structured information about clinical trials. NOTE: Such registries help patients, family members, health care professionals, researchers, and the public identify studies in which they might participate. Some registries include clinical trial results. Examples include: EU Clinical Trials Register (EU CTR), for studies in the EU or the EEA after 1 May 2001; ClinicalTrials.gov, a web-based resource from the National Library of Medicine (NLM) in the US. [After International Committee of Medical Journal Editors]</nciodm:CDISCDefinition>
                    <nciodm:PreferredTerm>Clinical Trial Registry</nciodm:PreferredTerm>
                </EnumeratedItem>
                <EnumeratedItem CodedValue="clinical trial results registry" nciodm:ExtCodeID="C156620">
                    <nciodm:CDISCDefinition>A web-based publicly accessible platform for providing structured summary results information about clinical trials. See also clinical trial registry.</nciodm:CDISCDefinition>
                    <nciodm:PreferredTerm>Clinical Trial Results Registry</nciodm:PreferredTerm>
                </EnumeratedItem>
                <EnumeratedItem CodedValue="clinical trial" nciodm:ExtCodeID="C71104">
                    <nciodm:CDISCDefinition>A research investigation involving human subjects that is designed to answer specific questions about the safety and efficacy of a biomedical intervention (drug, treatment, device) or new ways of using a known drug, treatment, or device). NOTE: NIH Office of Science Policy further specifies that a clinical trial is a type of research study that prospectively assigns subjects to interventions, and the EU clinical trial regulations set forth 3 specific conditions, any one of which qualifies a study as a clinical trial. These conditions include applying diagnostic or monitoring procedures not used in normal clinical practice to subjects. [After ICH E6 [R2], EU CTR 2014] See also clinical study, clinical investigation.</nciodm:CDISCDefinition>
                    <nciodm:PreferredTerm>Clinical Trial</nciodm:PreferredTerm>
                </EnumeratedItem>
                <EnumeratedItem CodedValue="clinician-reported outcome (ClinRO)" nciodm:ExtCodeID="C142453">
                    <nciodm:CDISCDefinition>A type of clinical outcome assessment. A measurement based on a report that comes from a trained health-care professional after observation of a patient's health condition. [After BEST Resource]</nciodm:CDISCDefinition>
                    <nciodm:PreferredTerm>Clinician-reported Outcome</nciodm:PreferredTerm>
                </EnumeratedItem>
                <EnumeratedItem CodedValue="Cmax" nciodm:ExtCodeID="C70918">
                    <nciodm:CDISCDefinition>Used in pharmacokinetics and bioequivalence to indicate maximum plasma concentration for a drug.</nciodm:CDISCDefinition>
                    <nciodm:PreferredTerm>Cmax</nciodm:PreferredTerm>
                </EnumeratedItem>
                <EnumeratedItem CodedValue="co-packaged product" nciodm:ExtCodeID="C165824">
                    <nciodm:CDISCDefinition>Two or more separate products packaged together in a single package or as a unit and composed of drug and device products, device and biological products, or biological and drug products. [After 21 CFR 3.2 (e) FAQ] See also combination product, single-entity product, cross-labeled product.</nciodm:CDISCDefinition>
                    <nciodm:PreferredTerm>Co-packaged Product</nciodm:PreferredTerm>
                </EnumeratedItem>
                <EnumeratedItem CodedValue="codelist" nciodm:ExtCodeID="C142454">
                    <nciodm:CDISCDefinition>Finite list of codes and their meanings that represent the only allowed values for a data item. A codelist is one type of controlled vocabulary. See also controlled vocabulary.</nciodm:CDISCDefinition>
                    <nciodm:PreferredTerm>Codelist</nciodm:PreferredTerm>
                </EnumeratedItem>
                <EnumeratedItem CodedValue="coding" nciodm:ExtCodeID="C80216">
                    <nciodm:CDISCDefinition>In clinical trials, the process of assigning data to categories for analysis. NOTE: Adverse events, for example, may be coded using MedDRA.</nciodm:CDISCDefinition>
                    <nciodm:PreferredTerm>Encode</nciodm:PreferredTerm>
                </EnumeratedItem>
                <EnumeratedItem CodedValue="cognitive debriefing" nciodm:ExtCodeID="C142455">
                    <nciodm:CDISCDefinition>A qualitative research tool used to determine whether concepts and items are understood by patients in the same way that PRO instrument developers intend. NOTE: Cognitive debriefing interviews involve incorporating follow-up questions in a field test interview to gain better understanding of how patients interpret questions asked of them and to collect and consider all concepts elicited by an item. [from PRO Draft Guidance Glossary]</nciodm:CDISCDefinition>
                    <nciodm:PreferredTerm>Cognitive Debriefing</nciodm:PreferredTerm>
                </EnumeratedItem>
                <EnumeratedItem CodedValue="cohort study" nciodm:ExtCodeID="C15208">
                    <nciodm:CDISCDefinition>Study of a group of individuals, some of whom are exposed to a variable of interest, in which subjects are followed over time. Cohort studies can be prospective or retrospective. [After AMA Manual of Style] See also prospective study, observational study, retrospective study, case-control study, cohort.</nciodm:CDISCDefinition>
                    <nciodm:PreferredTerm>Cohort Study</nciodm:PreferredTerm>
                </EnumeratedItem>
                <EnumeratedItem CodedValue="cohort" nciodm:ExtCodeID="C61512">
                    <nciodm:CDISCDefinition>A group of individuals who share a common exposure, experience or characteristic or a group of individuals followed-up or traced over time in a cohort study. [AMA Manual of Style] See also cohort study.</nciodm:CDISCDefinition>
                    <nciodm:PreferredTerm>Cohort</nciodm:PreferredTerm>
                </EnumeratedItem>
                <EnumeratedItem CodedValue="combination product" nciodm:ExtCodeID="C54696">
                    <nciodm:CDISCDefinition>A product composed of two or more different types of medical products (i.e., a combination of a drug, device, and/or biological product with one another and are referred to as "constituent parts" of the combination product). NOTE: A combination product might be a single-entity product, a co-packaged product or a cross-labeled product. [After 21 CFR 3.2 (e)] See also single-entity product, co-packaged product, cross-labeled product.</nciodm:CDISCDefinition>
                    <nciodm:PreferredTerm>Combination Product</nciodm:PreferredTerm>
                </EnumeratedItem>
                <EnumeratedItem CodedValue="commercially confidential information (CCI)" nciodm:ExtCodeID="C142456">
                    <nciodm:CDISCDefinition>Any information contained in clinical reports or other documents that is not in the public domain or publicly available and where disclosure may undermine the legitimate economic interest of the company (the Marketing Application Holder) and cause harm (if disclosed). [After EMA Policy 0070 implementation Guide]</nciodm:CDISCDefinition>
                    <nciodm:PreferredTerm>Commercially Confidential Information</nciodm:PreferredTerm>
                </EnumeratedItem>
                <EnumeratedItem CodedValue="common data element (CDE)" nciodm:ExtCodeID="C19984">
                    <nciodm:CDISCDefinition>A structured item characterized by a stem and response options together with a history of usage that can be standardized for research purposes across studies conducted by and for NIH. NOTE: The mark up or tagging facilitates document indexing, search and retrieval, and provides standard conventions for insertion of codes. [NCI, CaBIG]. See also item, item (PRO), stem, data element, data element identifier.</nciodm:CDISCDefinition>
                    <nciodm:PreferredTerm>Common Data Element</nciodm:PreferredTerm>
                </EnumeratedItem>
                <EnumeratedItem CodedValue="Common Technical Document" nciodm:ExtCodeID="C142575">
                    <nciodm:CDISCDefinition>A format agreed upon by ICH to organize applications to regulatory authorities for registration of pharmaceuticals for human use. [ICH] See also eCTD.</nciodm:CDISCDefinition>
                    <nciodm:PreferredTerm>ICH Common Technical Document</nciodm:PreferredTerm>
                </EnumeratedItem>
                <EnumeratedItem CodedValue="comparative study" nciodm:ExtCodeID="C142457">
                    <nciodm:CDISCDefinition>One in which the investigative drug is compared against another product, either active drug or placebo.</nciodm:CDISCDefinition>
                    <nciodm:PreferredTerm>Comparative Study</nciodm:PreferredTerm>
                </EnumeratedItem>
                <EnumeratedItem CodedValue="comparator (product)" nciodm:ExtCodeID="C142458">
                    <nciodm:CDISCDefinition>An investigational or marketed product (i.e., active control), or placebo, used as a reference in a clinical trial. [ICH E6 Glossary] See also control.</nciodm:CDISCDefinition>
                    <nciodm:PreferredTerm>Comparator</nciodm:PreferredTerm>
                </EnumeratedItem>
                <EnumeratedItem CodedValue="Competent Authority (CA)" nciodm:ExtCodeID="C142544">
                    <nciodm:CDISCDefinition>The regulatory body charged with monitoring compliance with the national statutes and regulations of European Member States.</nciodm:CDISCDefinition>
                    <nciodm:PreferredTerm>European Union Competent Authority</nciodm:PreferredTerm>
                </EnumeratedItem>
                <EnumeratedItem CodedValue="compliance (in relation to trials)" nciodm:ExtCodeID="C142734">
                    <nciodm:CDISCDefinition>Adherence to trial-related requirements, good clinical practice (GCP) requirements, and the applicable regulatory requirements. [Modified ICH E6 Glossary]</nciodm:CDISCDefinition>
                    <nciodm:PreferredTerm>Trial Compliance</nciodm:PreferredTerm>
                </EnumeratedItem>
                <EnumeratedItem CodedValue="computer application" nciodm:ExtCodeID="C42608">
                    <nciodm:CDISCSynonym>application software</nciodm:CDISCSynonym>
                    <nciodm:CDISCDefinition>Software designed to fill specific needs of a user; for example, software for navigation, project management, or process control.</nciodm:CDISCDefinition>
                    <nciodm:PreferredTerm>Computer Application</nciodm:PreferredTerm>
                </EnumeratedItem>
                <EnumeratedItem CodedValue="concept of interest" nciodm:ExtCodeID="C142433">
                    <nciodm:CDISCDefinition>In the context of clinical outcomes, the thing measured by a COA assessment (e.g., pain intensity). [After Clinical Outcome Assessment (COA) Glossary of Terms FDA FDA eCOA Glossary]</nciodm:CDISCDefinition>
                    <nciodm:PreferredTerm>Clinical Outcomes Assessment Concept of Interest</nciodm:PreferredTerm>
                </EnumeratedItem>
                <EnumeratedItem CodedValue="concept" nciodm:ExtCodeID="C45728">
                    <nciodm:CDISCDefinition>Discrete notion having a single meaning. In a controlled vocabulary a concept is mapped to one or more of the words that convey its meaning.</nciodm:CDISCDefinition>
                    <nciodm:PreferredTerm>Concept</nciodm:PreferredTerm>
                </EnumeratedItem>
                <EnumeratedItem CodedValue="concerned member state (CMS)" nciodm:ExtCodeID="C156640">
                    <nciodm:CDISCDefinition>A classification of a Member States in the Mutual Recognition Procedure (MRP) in the European authorization route resulting in a mutually recognized product. In the Mutual Recognition Procedure, one or more Member States that is a CMS is asked to mutually recognize the Market Authorization of the Reference Member State (RMS). [After Heads of Medicines Agencies (HMA) website http://www.hma.eu/medicinesapprovalsystem.html] See also Mutual Recognition Procedure (MRP) and Reference Member State (RMS).</nciodm:CDISCDefinition>
                    <nciodm:PreferredTerm>Concerned Member State</nciodm:PreferredTerm>
                </EnumeratedItem>
                <EnumeratedItem CodedValue="confidence interval (CI)" nciodm:ExtCodeID="C53324">
                    <nciodm:CDISCDefinition>A measure of the precision of an estimated value. The interval represents the range of values, consistent with the data, that is believed to encompass the "true" value with high probability (usually 95%). The confidence interval is expressed in the same units as the estimate. Wider intervals indicate lower precision; narrow intervals, greater precision. [CONSORT Statement]</nciodm:CDISCDefinition>
                    <nciodm:PreferredTerm>Confidence Interval</nciodm:PreferredTerm>
                </EnumeratedItem>
                <EnumeratedItem CodedValue="confidentiality" nciodm:ExtCodeID="C16466">
                    <nciodm:CDISCDefinition>Prevention of disclosure to other than authorized individuals of a sponsor's proprietary information or of a subject's identity. [ICH E6 Glossary]</nciodm:CDISCDefinition>
                    <nciodm:PreferredTerm>Confidentiality</nciodm:PreferredTerm>
                </EnumeratedItem>
                <EnumeratedItem CodedValue="confirmatory trial" nciodm:ExtCodeID="C142460">
                    <nciodm:CDISCDefinition>Phase 3 trial with results that confirm the preliminary evidence accumulated in earlier phases that a drug is safe and effective for use for the intended indication and recipient population. [After ICH E8] See also non-confirmatory trial result, pragmatic trial. Compare to exploratory trial.</nciodm:CDISCDefinition>
                    <nciodm:PreferredTerm>Confirmatory Trial</nciodm:PreferredTerm>
                </EnumeratedItem>
                <EnumeratedItem CodedValue="conformity assessment" nciodm:ExtCodeID="C142461">
                    <nciodm:CDISCDefinition>The process by which compliance with the EMA's essential requirements is assessed. See also Notified Body (NB).</nciodm:CDISCDefinition>
                    <nciodm:PreferredTerm>Conformity Assessment</nciodm:PreferredTerm>
                </EnumeratedItem>
                <EnumeratedItem CodedValue="consent form" nciodm:ExtCodeID="C16468">
                    <nciodm:CDISCSynonym>informed consent form</nciodm:CDISCSynonym>
                    <nciodm:CDISCDefinition>Document used during the informed consent process that is the basis for explaining to potential subjects the risks and potential benefits of a study and the rights and responsibilities of the parties involved. NOTE: The informed consent document provides a summary of a clinical trial (including its purpose, the treatment procedures and schedule, potential risks and benefits, alternatives to participation, etc.) and explains an individual's rights as a subject. it is designed to begin the informed consent process, which consists of conversations between the subject and the research team. if the individual then decides to enter the trial, s/he gives her/his official consent by signing the document. See also informed consent.</nciodm:CDISCDefinition>
                    <nciodm:PreferredTerm>Consent Form</nciodm:PreferredTerm>
                </EnumeratedItem>
                <EnumeratedItem CodedValue="construct validation (COA)" nciodm:ExtCodeID="C156633">
                    <nciodm:CDISCSynonym>construct validation (re COA)</nciodm:CDISCSynonym>
                    <nciodm:CDISCDefinition>Establishing, using quantitative methods, the extent to which the relationships among items, domains, and concepts of a clinical outcome assessment (COA) conform to a priori hypotheses concerning logical relationships that should exist with other measures or characteristics of patients and patient groups. [NIH-FDA BEST (Biomarkers, Endpoints, and other Tools) Resource, https://www.ncbi.nlm.nih.gov/books/NBK338448/] See also validation.</nciodm:CDISCDefinition>
                    <nciodm:PreferredTerm>Clinical Outcome Assessment Construct Validation</nciodm:PreferredTerm>
                </EnumeratedItem>
                <EnumeratedItem CodedValue="consumer safety officer (CSO)" nciodm:ExtCodeID="C142462">
                    <nciodm:CDISCDefinition>FDA official who coordinates the review process of various applications.</nciodm:CDISCDefinition>
                    <nciodm:PreferredTerm>Consumer Safety Officer</nciodm:PreferredTerm>
                </EnumeratedItem>
                <EnumeratedItem CodedValue="content validation (COA)" nciodm:ExtCodeID="C156632">
                    <nciodm:CDISCSynonym>content validation (re COA)</nciodm:CDISCSynonym>
                    <nciodm:CDISCDefinition>Establishing from qualitative research the extent to which the clinical outcome assessment (COA) instrument measures the concept of interest including evidence that the items and domains of an instrument are appropriate and comprehensive relative to its intended measurement concept, population, and use. [NIH-FDA BEST (Biomarkers, Endpoints, and other Tools) Resource, https://www.ncbi.nlm.nih.gov/books/NBK338448/] See also validation.</nciodm:CDISCDefinition>
                    <nciodm:PreferredTerm>Clinical Outcome Assessment Content Validation</nciodm:PreferredTerm>
                </EnumeratedItem>
                <EnumeratedItem CodedValue="content validity" nciodm:ExtCodeID="C78690">
                    <nciodm:CDISCDefinition>The extent to which a variable (for example, a rating scale) measures what it is supposed to measure. [ICH E9 Glossary] evidence from qualitative research demonstrating that the instrument measures the concept of interest, including evidence that the items and domains of an instrument are appropriate and comprehensive, relative to its intended measurement concept, population, and use. NOTE: Testing other measurement properties will not replace or rectify problems with content validity. [FDA Final PRO Guidance]</nciodm:CDISCDefinition>
                    <nciodm:PreferredTerm>Content Validity</nciodm:PreferredTerm>
                </EnumeratedItem>
                <EnumeratedItem CodedValue="context of use" nciodm:ExtCodeID="C142434">
                    <nciodm:CDISCDefinition>In the context of clinical outcomes, a comprehensive statement that fully and clearly describes and justifies the way a COA is to be used and the drug development-related purpose of the use. NOTE: The context of use defines the boundaries within which the available data adequately justify use of the COA and describes important criteria regarding the circumstances under which the COA is qualified. [FDA Clinical Outcome Assessment (COA) Glossary]</nciodm:CDISCDefinition>
                    <nciodm:PreferredTerm>Clinical Outcomes Assessment Context of Use</nciodm:PreferredTerm>
                </EnumeratedItem>
                <EnumeratedItem CodedValue="contingent subject trial contact" nciodm:ExtCodeID="C142463">
                    <nciodm:CDISCDefinition>Planned response to an anticipated but conditional event in a clinical trial. [CDISC Trial Design Project]</nciodm:CDISCDefinition>
                    <nciodm:PreferredTerm>Contingent Subject Trial Contact</nciodm:PreferredTerm>
                </EnumeratedItem>
                <EnumeratedItem CodedValue="contract research organization (CRO)" nciodm:ExtCodeID="C54148">
                    <nciodm:CDISCDefinition>A person or an organization (commercial, academic, or other) contracted by the sponsor to perform one or more of a sponsor's trial-related duties and functions. [ICH E6 Glossary]</nciodm:CDISCDefinition>
                    <nciodm:PreferredTerm>Contract Research Organization</nciodm:PreferredTerm>
                </EnumeratedItem>
                <EnumeratedItem CodedValue="contract" nciodm:ExtCodeID="C115464">
                    <nciodm:CDISCDefinition>A written, dated, and signed agreement between two or more involved parties that sets out any arrangements on delegation and distribution of tasks and obligations and, if appropriate, on financial matters. The protocol may serve as the basis of a contract. [ICH E6 Glossary]</nciodm:CDISCDefinition>
                    <nciodm:PreferredTerm>Contractual Agreement</nciodm:PreferredTerm>
                </EnumeratedItem>
                <EnumeratedItem CodedValue="control group" nciodm:ExtCodeID="C28143">
                    <nciodm:CDISCDefinition>The group of subjects in a controlled study that receives, for example, no treatment, a standard treatment, or a placebo. [21 CFR 314.126] See also control, controlled study, arm (protocol).</nciodm:CDISCDefinition>
                    <nciodm:PreferredTerm>Control Group</nciodm:PreferredTerm>
                </EnumeratedItem>
                <EnumeratedItem CodedValue="control of electronic records" nciodm:ExtCodeID="C142464">
                    <nciodm:CDISCDefinition>To prepare and maintain case histories and other records for regulated clinical investigations or other regulated research. NOTE: Control is often used as a casual synonym for the terms in 21 CFR 312.62 requiring investigative sites to prepare, maintain, and retain adequate and accurate case histories. [After 1. 21 CFR 11; 2. CSUCT] See also record.</nciodm:CDISCDefinition>
                    <nciodm:PreferredTerm>Control of Electronic Records</nciodm:PreferredTerm>
                </EnumeratedItem>
                <EnumeratedItem CodedValue="control" nciodm:ExtCodeID="C142703">
                    <nciodm:CDISCDefinition>In a trial, a comparator against which the study treatment is evaluated [e.g., concurrent (placebo, no treatment, dose-response, active), and external (historical, published literature)]. [After ICH E10]. See also comparator (product), control group, controlled study, arm (protocol).</nciodm:CDISCDefinition>
                    <nciodm:PreferredTerm>Study Control</nciodm:PreferredTerm>
                </EnumeratedItem>
                <EnumeratedItem CodedValue="controlled study" nciodm:ExtCodeID="C28279">
                    <nciodm:CDISCDefinition>A study in which a test article is compared with a treatment that has known effects (active control), no treatment, placebo, or dose comparison concurrent control, or external (historic) control. [21 CFR 314.126 and ICH E10]. See also control, comparator (product), control group.</nciodm:CDISCDefinition>
                    <nciodm:PreferredTerm>Controlled Study</nciodm:PreferredTerm>
                </EnumeratedItem>
                <EnumeratedItem CodedValue="controlled vocabulary" nciodm:ExtCodeID="C48697">
                    <nciodm:CDISCSynonym>controlled terminology</nciodm:CDISCSynonym>
                    <nciodm:CDISCDefinition>A finite set of values that represent the only allowed values for a data item. These values may be codes, text, or numeric. See also codelist.</nciodm:CDISCDefinition>
                    <nciodm:PreferredTerm>Controlled Vocabulary</nciodm:PreferredTerm>
                </EnumeratedItem>
                <EnumeratedItem CodedValue="coordinating committee" nciodm:ExtCodeID="C142465">
                    <nciodm:CDISCDefinition>A committee that a sponsor may organize to coordinate the conduct of a multicenter trial. [ICH E6]</nciodm:CDISCDefinition>
                    <nciodm:PreferredTerm>Coordinating Committee</nciodm:PreferredTerm>
                </EnumeratedItem>
                <EnumeratedItem CodedValue="coordinating investigator" nciodm:ExtCodeID="C51818">
                    <nciodm:CDISCDefinition>An investigator assigned the responsibility for the coordination of investigators at different centers participating in a multicenter trial. NOTE: Depending on the scope of the trial, coordination could be across centers/sites in a region, across regions, or within a nation. [ICH E6] See also investigator, investigator/institution, principal investigator, site investigator, sponsor-investigator, sub-investigator.</nciodm:CDISCDefinition>
                    <nciodm:PreferredTerm>Coordinating Investigator</nciodm:PreferredTerm>
                </EnumeratedItem>
                <EnumeratedItem CodedValue="correlation" nciodm:ExtCodeID="C48834">
                    <nciodm:CDISCDefinition>The degree to which two or more variables are related. Typically the linear relationship is measured with either Pearson's correlation or spearman's Rho. NOTE: Correlation does not necessarily mean causation. [After Hyperstat Online Glossary; CDISC ADaM]</nciodm:CDISCDefinition>
                    <nciodm:PreferredTerm>Correlation</nciodm:PreferredTerm>
                </EnumeratedItem>
                <EnumeratedItem CodedValue="covariate (prognostic)" nciodm:ExtCodeID="C142645">
                    <nciodm:CDISCDefinition>Factor or condition that influences outcome of a trial. [ADaM]</nciodm:CDISCDefinition>
                    <nciodm:PreferredTerm>Prognostic Covariate</nciodm:PreferredTerm>
                </EnumeratedItem>
                <EnumeratedItem CodedValue="CRF (paper)" nciodm:ExtCodeID="C142625">
                    <nciodm:CDISCDefinition>Case report form in which the data items are linked by the physical properties of paper to particular pages. NOTE: Data are captured manually and any comments, notes, and signatures are also linked to those data items by writing or typescript on the paper pages. See also eCRF, case report form.</nciodm:CDISCDefinition>
                    <nciodm:PreferredTerm>Paper Case Report Form</nciodm:PreferredTerm>
                </EnumeratedItem>
                <EnumeratedItem CodedValue="CRF data" nciodm:ExtCodeID="C142410">
                    <nciodm:CDISCDefinition>Subset of clinical trial data that are entered into fields on a case report form.</nciodm:CDISCDefinition>
                    <nciodm:PreferredTerm>Case Report Form Data</nciodm:PreferredTerm>
                </EnumeratedItem>
                <EnumeratedItem CodedValue="criterion validation (COA)" nciodm:ExtCodeID="C156634">
                    <nciodm:CDISCSynonym>criterion validation (re COA)</nciodm:CDISCSynonym>
                    <nciodm:CDISCDefinition>Establishing the extent to which the scores of a clinical outcome assessment instrument are related to a known gold standard measure of the same concept. For most COAs clinical outcome assessments (COAs), criterion validity cannot be measured because there is no gold standard. [NIH-FDA BEST (Biomarkers, Endpoints, and other Tools) Resource, https://www.ncbi.nlm.nih.gov/books/NBK338448/] See also validation.</nciodm:CDISCDefinition>
                    <nciodm:PreferredTerm>Clinical Outcome Assessment Criterion Validation</nciodm:PreferredTerm>
                </EnumeratedItem>
                <EnumeratedItem CodedValue="cross-labeled product" nciodm:ExtCodeID="C165825">
                    <nciodm:CDISCDefinition>An investigational drug, device, or biological product packaged separately that, according to its proposed labeling, is intended for use only with another investigational or approved individually specified drug, device, or biological product where both are required to achieve the intended use, indication, or effect. NOTE: In the case where an approved product is combined with an investigational product, upon approval of the cross-labeled product the label of the previously approved product should be modified to reflect the combination status. [After 21 CFR 3.2 (e) FAQ] See also combination product, single-entity product, co-packaged product.</nciodm:CDISCDefinition>
                    <nciodm:PreferredTerm>Cross-labeled Product</nciodm:PreferredTerm>
                </EnumeratedItem>
                <EnumeratedItem CodedValue="cross-sectional study" nciodm:ExtCodeID="C53310">
                    <nciodm:CDISCDefinition>A study that measures the prevalence of health outcomes or determinants of health, or both, in a population at a point in time or over a short period. [After British Medical Journal, Epidemiology for the uninitiated] See also observational study.</nciodm:CDISCDefinition>
                    <nciodm:PreferredTerm>Cross-Sectional Study</nciodm:PreferredTerm>
                </EnumeratedItem>
                <EnumeratedItem CodedValue="crossover trial" nciodm:ExtCodeID="C82637">
                    <nciodm:CDISCDefinition>A trial design for which subjects function as their own control and are assigned to receive investigational product and controls in an order determined by randomizations, typically with a washout period between the two products. [Center for the Advancement of Clinical Research; CDISC ADaM]</nciodm:CDISCDefinition>
                    <nciodm:PreferredTerm>Crossover Study</nciodm:PreferredTerm>
                </EnumeratedItem>
                <EnumeratedItem CodedValue="CTCAE (Common Terminology Criterion for Adverse Events)" nciodm:ExtCodeID="C49704">
                    <nciodm:CDISCDefinition>Standard terminology developed to report adverse events occurring in cancer clinical trials. CTCAE are used in study adverse event summaries and Investigational New Drug (IND) reports to the Food and Drug Administration. The CTCAE contain a grading scale for each adverse event term representing the severity of the event. (NCI)</nciodm:CDISCDefinition>
                    <nciodm:PreferredTerm>Common Terminology Criteria for Adverse Events</nciodm:PreferredTerm>
                </EnumeratedItem>
                <EnumeratedItem CodedValue="CUI (common unique identifier)" nciodm:ExtCodeID="C70818">
                    <nciodm:CDISCDefinition>A code used in the Enterprise Vocabulary System (EVS) to link a particular concept across one or more terms.</nciodm:CDISCDefinition>
                    <nciodm:PreferredTerm>Concept Unique Identifier</nciodm:PreferredTerm>
                </EnumeratedItem>
                <EnumeratedItem CodedValue="curriculum vitae (CV)" nciodm:ExtCodeID="C54631">
                    <nciodm:CDISCDefinition>Document that outlines a person's educational and professional history.</nciodm:CDISCDefinition>
                    <nciodm:PreferredTerm>Curriculum Vitae</nciodm:PreferredTerm>
                </EnumeratedItem>
                <EnumeratedItem CodedValue="data acquisition" nciodm:ExtCodeID="C142469">
                    <nciodm:CDISCDefinition>Capture of data into a structured, computerized format without a human-to-computer interface (i.e., from another measuring instrument or computerized source). Contrast with data entry, electronic data capture.</nciodm:CDISCDefinition>
                    <nciodm:PreferredTerm>Data Acquisition</nciodm:PreferredTerm>
                </EnumeratedItem>
                <EnumeratedItem CodedValue="data capture" nciodm:ExtCodeID="C142470">
                    <nciodm:CDISCDefinition>The process of collecting and recording measures and assessments for a specific purpose. NOTE: Data are said to be captured when they are extracted as permanent records for use in a new context or created as a source document in that context. An example would be data that are manually copied or otherwise extracted from an EHR that are then transferred into a clinical trial database to be used for a clinical trial. [After Working with Data, Australian National Data Service, Accessed 4 Sept 2020; AFter FDA Guidance on Use of Electronic Health Record Data in Clinical Investigations Guidance for Industry, July 2018] See also data entry, EDC (electronic data capture).</nciodm:CDISCDefinition>
                    <nciodm:PreferredTerm>Data Capture</nciodm:PreferredTerm>
                </EnumeratedItem>
                <EnumeratedItem CodedValue="data clarification form" nciodm:ExtCodeID="C115521">
                    <nciodm:CDISCDefinition>A form used to query an investigator and collect feedback to resolve questions regarding data.</nciodm:CDISCDefinition>
                    <nciodm:PreferredTerm>Data Clarification Form</nciodm:PreferredTerm>
                </EnumeratedItem>
                <EnumeratedItem CodedValue="data clarification" nciodm:ExtCodeID="C142471">
                    <nciodm:CDISCDefinition>Answer supplied by the investigator in response to a query. NOTE: The investigator may supply a new data point value to replace the initial value or a confirmation of the queried data point.</nciodm:CDISCDefinition>
                    <nciodm:PreferredTerm>Data Clarification</nciodm:PreferredTerm>
                </EnumeratedItem>
                <EnumeratedItem CodedValue="data collection instrument" nciodm:ExtCodeID="C142472">
                    <nciodm:CDISCDefinition>A substrate or tool (either electronic or paper) used to record, transcribe, or collect clinical data.</nciodm:CDISCDefinition>
                    <nciodm:PreferredTerm>Data Collection Instrument</nciodm:PreferredTerm>
                </EnumeratedItem>
                <EnumeratedItem CodedValue="data collection" nciodm:ExtCodeID="C103159">
                    <nciodm:CDISCDefinition>In the context of clinical research, accessing and recording information that provides source data for analysis and interpretation See data entry and data capture. [CDISC]</nciodm:CDISCDefinition>
                    <nciodm:PreferredTerm>Data Collection</nciodm:PreferredTerm>
                </EnumeratedItem>
                <EnumeratedItem CodedValue="data element identifier" nciodm:ExtCodeID="C142474">
                    <nciodm:CDISCDefinition>An identifier that may include information such as the origin of the data element, the date and time of entry, or the identification number of the study subject to whom the data element applies. NOTE: Data element identifiers should be attached to each data element as it is entered or transmitted by the originator into the eCRF. [After body and glossary of FDA Final Guidance eSource]</nciodm:CDISCDefinition>
                    <nciodm:PreferredTerm>Data Element Identifier</nciodm:PreferredTerm>
                </EnumeratedItem>
                <EnumeratedItem CodedValue="data element" nciodm:ExtCodeID="C41002">
                    <nciodm:CDISCDefinition>Smallest unit of information in a transaction. [From body and glossary of FDA Final Guidance on eSource] See also eXtensible markup language (XML) data element, common data element, clinical study data element.</nciodm:CDISCDefinition>
                    <nciodm:PreferredTerm>Data Element</nciodm:PreferredTerm>
                </EnumeratedItem>
                <EnumeratedItem CodedValue="data encryption standard (DES)" nciodm:ExtCodeID="C142475">
                    <nciodm:CDISCDefinition>A FIPS approved cryptographic algorithm for encrypting (enciphering) and decrypting (deciphering) binary coded information. Encrypting data converts it to an unintelligible form called cipher. Decrypting cipher converts the data back to its original form called plaintext. NOTE: Data that are considered sensitive by the responsible authority or data that represent a high value should be cryptographically protected if vulnerable to unauthorized disclosure or undetected modification during transmission or while in storage. [After Federal Information Processing Standards (FIPS) Publication 46-2]</nciodm:CDISCDefinition>
                    <nciodm:PreferredTerm>Data Encryption Standard</nciodm:PreferredTerm>
                </EnumeratedItem>
                <EnumeratedItem CodedValue="data entry" nciodm:ExtCodeID="C142379">
                    <nciodm:CDISCDefinition>Human input of data into a structured, computerized format using an interface such as a keyboard, pen-based tablet, or voice recognition. Contrast with data acquisition, electronic data capture, direct entry. See also data collection, data capture.</nciodm:CDISCDefinition>
                    <nciodm:PreferredTerm>Data Entry</nciodm:PreferredTerm>
                </EnumeratedItem>
                <EnumeratedItem CodedValue="data integrity verification" nciodm:ExtCodeID="C142477">
                    <nciodm:CDISCDefinition>Process of manually supervised verification of data for internal consistency.</nciodm:CDISCDefinition>
                    <nciodm:PreferredTerm>Data Integrity Verification</nciodm:PreferredTerm>
                </EnumeratedItem>
                <EnumeratedItem CodedValue="data integrity" nciodm:ExtCodeID="C142476">
                    <nciodm:CDISCDefinition>A condition of data reflecting the degree to which the data are complete, consistent, accurate, trustworthy, and reliable at any given time as well as consistently so maintained throughout the data life cycle. NOTE: The data should be collected and maintained in a secure manner, so that they are Attributable, Legible, Contemporaneously recorded, Original (or a true copy) and Accurate (ALCOA). Assuring data integrity requires appropriate quality and risk management systems, including adherence to sound scientific principles and good documentation practices. (After MHRA Guidance on "GxP data integrity") See also ALCOA, ALCOA+, traceability (data). Compare to data quality.</nciodm:CDISCDefinition>
                    <nciodm:PreferredTerm>Data Integrity</nciodm:PreferredTerm>
                </EnumeratedItem>
                <EnumeratedItem CodedValue="data interchange" nciodm:ExtCodeID="C142478">
                    <nciodm:CDISCDefinition>Transfer of information between two or more parties, which maintains the integrity of the contents of the data for the purpose intended. See also interoperability.</nciodm:CDISCDefinition>
                    <nciodm:PreferredTerm>Data Interchange</nciodm:PreferredTerm>
                </EnumeratedItem>
                <EnumeratedItem CodedValue="data item" nciodm:ExtCodeID="C142479">
                    <nciodm:CDISCDefinition>A named component of a data element. Usually the smallest component [ANSI]. See also data model, data element.</nciodm:CDISCDefinition>
                    <nciodm:PreferredTerm>Data Item</nciodm:PreferredTerm>
                </EnumeratedItem>
                <EnumeratedItem CodedValue="data listing" nciodm:ExtCodeID="C142483">
                    <nciodm:CDISCDefinition>Set of observations organized by domain.</nciodm:CDISCDefinition>
                    <nciodm:PreferredTerm>Data Listing</nciodm:PreferredTerm>
                </EnumeratedItem>
                <EnumeratedItem CodedValue="data management conventions" nciodm:ExtCodeID="C142484">
                    <nciodm:CDISCDefinition>Procedures and policies for data management (e.g., documented procedure(s) for resolving self-evident changes). [ICH E6] See self-evident change.</nciodm:CDISCDefinition>
                    <nciodm:PreferredTerm>Data Management Convention</nciodm:PreferredTerm>
                </EnumeratedItem>
                <EnumeratedItem CodedValue="data management" nciodm:ExtCodeID="C18086">
                    <nciodm:CDISCDefinition>Tasks associated with the entry, transfer, and/or preparation of source data and derived items for entry into a clinical trial database. NOTE: Data management could include database creation, data entry, review, coding, data editing, data QC, locking, or archiving; it typically does not include source data capture.</nciodm:CDISCDefinition>
                    <nciodm:PreferredTerm>Data Management</nciodm:PreferredTerm>
                </EnumeratedItem>
                <EnumeratedItem CodedValue="data model" nciodm:ExtCodeID="C142487">
                    <nciodm:CDISCDefinition>Unambiguous, formally stated, expression of items, the relationship among items, and the structure of the data in a certain problem area or context of use. A data model uses symbolic conventions agreed to represent content so that content does not lose its intended meaning when communicated.</nciodm:CDISCDefinition>
                    <nciodm:PreferredTerm>Data Model</nciodm:PreferredTerm>
                </EnumeratedItem>
                <EnumeratedItem CodedValue="data monitoring committee (DMC)" nciodm:ExtCodeID="C142489">
                    <nciodm:CDISCSynonym>Data and Safety Monitoring Board</nciodm:CDISCSynonym>
                    <nciodm:CDISCSynonym>DSMB</nciodm:CDISCSynonym>
                    <nciodm:CDISCDefinition>Group of individuals with pertinent expertise that reviews on a regular basis accumulating data from an ongoing clinical trial. The DMC advises the sponsor regarding the continuing safety of current participants and those yet to be recruited, as well as the continuing validity and scientific merit of the trial. NOTE: A DMC can recommend stopping a trial if it finds toxicities or if treatment is proved beneficial. [After FDA guidance on establishment and operation of clinical trial data monitoring committees]</nciodm:CDISCDefinition>
                    <nciodm:PreferredTerm>Data Monitoring Committee</nciodm:PreferredTerm>
                </EnumeratedItem>
                <EnumeratedItem CodedValue="data monitoring" nciodm:ExtCodeID="C142488">
                    <nciodm:CDISCDefinition>Process by which clinical data are examined for completeness, consistency, and accuracy.</nciodm:CDISCDefinition>
                    <nciodm:PreferredTerm>Data Monitoring</nciodm:PreferredTerm>
                </EnumeratedItem>
                <EnumeratedItem CodedValue="data origin" nciodm:ExtCodeID="C16493">
                    <nciodm:CDISCDefinition>Source of information collected in the course of a clinical trial, specifically used to differentiate between data as collected versus data that are derived or calculated. NOTE: In CDISC, a metadata attribute defined for each dataset variable in the Define.xml document of an SDTM submission that refers to the source of a variable (e.g., CRF, derived, sponsor defined, PRO, etc.). See also data element originator.</nciodm:CDISCDefinition>
                    <nciodm:PreferredTerm>Data Source</nciodm:PreferredTerm>
                </EnumeratedItem>
                <EnumeratedItem CodedValue="data originator" nciodm:ExtCodeID="C142490">
                    <nciodm:CDISCDefinition>Metadata characterizing the entity creating a data element in an eCRF for a clinical investigation. NOTE: Per FDA Final Guidance on eSource, "Each data element is associated with an origination type that identifies the source of its capture in the eCRF. This could be a person, a computer system, a device, or an instrument that is authorized to enter, change, or transmit data elements into the eCRF (also sometimes known as an author)." See also data element, data element originator, origin. [CDISC, Note is from FDA Final Guidance on eSource]</nciodm:CDISCDefinition>
                    <nciodm:PreferredTerm>Data Originator</nciodm:PreferredTerm>
                </EnumeratedItem>
                <EnumeratedItem CodedValue="data quality" nciodm:ExtCodeID="C142491">
                    <nciodm:CDISCDefinition>A dimension of data contributing its trustworthiness and pertaining to accuracy, sensitivity, validity, and suitability to purpose. Key elements of data quality include attribution, legibility (decipherable, unambiguous), contemporaneousness, originality (i.e., not duplicated), accuracy, precision, completeness, consistency (logical, not out of range), and those who have modified the data. NOTE: Scientists may reasonably trust data that are accurate (high quality) that have also been reviewed by investigators and protected from unauthorized alteration (high integrity). See also ALCOA, data integrity.</nciodm:CDISCDefinition>
                    <nciodm:PreferredTerm>Data Quality</nciodm:PreferredTerm>
                </EnumeratedItem>
                <EnumeratedItem CodedValue="data security" nciodm:ExtCodeID="C142492">
                    <nciodm:CDISCDefinition>Degree to which data are protected from the risk of accidental or malicious alteration or destruction and from unauthorized access or disclosure. [FDA]</nciodm:CDISCDefinition>
                    <nciodm:PreferredTerm>Data Security</nciodm:PreferredTerm>
                </EnumeratedItem>
                <EnumeratedItem CodedValue="data selection criteria" nciodm:ExtCodeID="C142493">
                    <nciodm:CDISCDefinition>The rules by which particular data are selected and/ or transferred between the point of care and the patient record; subsequently, from the patient record to the database; and from database to inclusion in sub-population analyses.</nciodm:CDISCDefinition>
                    <nciodm:PreferredTerm>Data Selection Criteria</nciodm:PreferredTerm>
                </EnumeratedItem>
                <EnumeratedItem CodedValue="data standards" nciodm:ExtCodeID="C103180">
                    <nciodm:CDISCDefinition>Defined rules, conventions, guidelines, characteristics, methods, formats, and terminologies that provide structure and consistency for exchange and utilization of data. NOTE: Data standards may describe the elements and relationships necessary to achieve the unambiguous exchange of data between disparate information systems. [After https://www.fda.gov/media/124694/download Standards Development and the Use of Standards in Regulatory Submissions Reviewed in the Center for Biologics Evaluation and Research Guidance for Industry MARCH2019, NCI Thesaurus]. See also interoperability, standard, CDISC standards, Study Data Standardization Plan, and Standards Development Organization.</nciodm:CDISCDefinition>
                    <nciodm:PreferredTerm>Data Standard</nciodm:PreferredTerm>
                </EnumeratedItem>
                <EnumeratedItem CodedValue="data storage" nciodm:ExtCodeID="C142494">
                    <nciodm:CDISCDefinition>To maintain data by placing the data, or a copy of the data, onto an electronically accessible device for preservation (either in plain-text or encrypted format). [HL7 eHR-s FM Glossary of Terms, 2010].</nciodm:CDISCDefinition>
                    <nciodm:PreferredTerm>Data Storage</nciodm:PreferredTerm>
                </EnumeratedItem>
                <EnumeratedItem CodedValue="data subject" nciodm:ExtCodeID="C142495">
                    <nciodm:CDISCDefinition>In the context of privacy guidelines, An individual who is the subject of personal data, persons to whom data refers, and from whom data are collected, processed, and stored. [after ISO/TS 2537:2008; and EU GDPR] See also study participant, participant.</nciodm:CDISCDefinition>
                    <nciodm:PreferredTerm>Data Subject</nciodm:PreferredTerm>
                </EnumeratedItem>
                <EnumeratedItem CodedValue="data transformations" nciodm:ExtCodeID="C43582">
                    <nciodm:CDISCDefinition>Algorithmic operations on data or data sets to achieve a meaningful set of derived data for analysis. [ADaM] See also derived variable.</nciodm:CDISCDefinition>
                    <nciodm:PreferredTerm>Data Transformation</nciodm:PreferredTerm>
                </EnumeratedItem>
                <EnumeratedItem CodedValue="data type" nciodm:ExtCodeID="C42645">
                    <nciodm:CDISCDefinition>Data types define the structural format of the data carried in the attribute and influence the set of allowable values an attribute may assume. [HL7]</nciodm:CDISCDefinition>
                    <nciodm:PreferredTerm>Data Type</nciodm:PreferredTerm>
                </EnumeratedItem>
                <EnumeratedItem CodedValue="data validation" nciodm:ExtCodeID="C142500">
                    <nciodm:CDISCDefinition>Process used to determine whether data are accurate, authentic, complete, and/or compliant with applicable standards, rules, and conventions. NOTE: The process may include format checks, completeness checks, check key tests, reasonableness checks, and limit checks. [After FDA.; ISO] See also data integrity, validation.</nciodm:CDISCDefinition>
                    <nciodm:PreferredTerm>Data Validation</nciodm:PreferredTerm>
                </EnumeratedItem>
                <EnumeratedItem CodedValue="data" nciodm:ExtCodeID="C25474">
                    <nciodm:CDISCDefinition>Representations of facts, concepts, or instructions in a manner suitable for communication, interpretation, or processing by humans or by automated means. [FDA]</nciodm:CDISCDefinition>
                    <nciodm:PreferredTerm>Data</nciodm:PreferredTerm>
                </EnumeratedItem>
                <EnumeratedItem CodedValue="database lock" nciodm:ExtCodeID="C142503">
                    <nciodm:CDISCDefinition>Action taken to prevent further changes to a clinical trial database or any equivalent clinical data storage system. NOTE: Locking of a database is done after review, query resolution, and a determination has been made that the database is ready for analysis.</nciodm:CDISCDefinition>
                    <nciodm:PreferredTerm>Database Lock</nciodm:PreferredTerm>
                </EnumeratedItem>
                <EnumeratedItem CodedValue="database" nciodm:ExtCodeID="C15426">
                    <nciodm:CDISCDefinition>A collection of data or information, typically organized for ease and speed of search and retrieval.</nciodm:CDISCDefinition>
                    <nciodm:PreferredTerm>Database</nciodm:PreferredTerm>
                </EnumeratedItem>
                <EnumeratedItem CodedValue="dataset" nciodm:ExtCodeID="C47824">
                    <nciodm:CDISCDefinition>A collection of structured data in a single file. [CDISC] Compare to analysis dataset, tabulation dataset.</nciodm:CDISCDefinition>
                    <nciodm:PreferredTerm>Data Set</nciodm:PreferredTerm>
                </EnumeratedItem>
                <EnumeratedItem CodedValue="de-identification" nciodm:ExtCodeID="C45970">
                    <nciodm:CDISCDefinition>The process of removing potentially identifying data or data elements to render data into a form that does not identify individuals and where identification is not likely to take place. NOTE: A general term for a process of removing the association between a set of identifying data and the data subject. Examples of potentially identifying data include name, birth date, social security number, home address, telephone number, e-mail address, medical record numbers, health plan beneficiary numbers, full-face photographic images). [After ISO/TS 25237: 2008 - Health Informatics - Pseudonymization; HIPAA: 45 CFR, 164.514] See also anonymization.</nciodm:CDISCDefinition>
                    <nciodm:PreferredTerm>Deidentification</nciodm:PreferredTerm>
                </EnumeratedItem>
                <EnumeratedItem CodedValue="de-identified information" nciodm:ExtCodeID="C142507">
                    <nciodm:CDISCDefinition>Records that have had enough personally identifiable information removed or obscured such that the remaining information does not identify an individual, and there is no reasonable basis to believe that the information can be used to identify an individual. [Guide to Protecting Personally Identifiable Information (PII): Special Publication NIST pubs/800-122]</nciodm:CDISCDefinition>
                    <nciodm:PreferredTerm>De-identified Information</nciodm:PreferredTerm>
                </EnumeratedItem>
                <EnumeratedItem CodedValue="decentralized clinical trial (DCT)" nciodm:ExtCodeID="C176257">
                    <nciodm:CDISCDefinition>A trial in which data capture, administration of medication, and possibly other procedures are done at the subject's location, e.g., at home or by telemedicine, mobile technology, and local HCPs (like family physicians, general practitioners). NOTE: The procedures (entry of data, medical tests, clinical evaluations, objective measures, observations) for capturing safety and efficacy measurements and observations may be done in-person by a traveling clinician or nurse so DCTs are not necessarily virtual. The responsibility for preparation, maintenance and retention of source records may be allocated to a centralized investigator or sponsor investigator. [After CTTI Recommendations: Decentralized Clinical Trials, September 2018] See also remote clinical trial, virtual, visit.</nciodm:CDISCDefinition>
                    <nciodm:PreferredTerm>Decentralized Clinical Trial</nciodm:PreferredTerm>
                </EnumeratedItem>
                <EnumeratedItem CodedValue="decision rule" nciodm:ExtCodeID="C142504">
                    <nciodm:CDISCDefinition>Succinct statement of how a decision will be reached based upon the expected foreseen clinical benefits in terms of outcomes of the primary endpoint. [FDA documentation]</nciodm:CDISCDefinition>
                    <nciodm:PreferredTerm>Decision Rule</nciodm:PreferredTerm>
                </EnumeratedItem>
                <EnumeratedItem CodedValue="Declaration of Helsinki" nciodm:ExtCodeID="C142505">
                    <nciodm:CDISCDefinition>A set of recommendations or basic principles that guide medical doctors in the conduct of biomedical research involving human subjects. it was originally adopted by the 18th World Medical assembly (Helsinki, Finland, 1964) and recently revised (64th WMA General Assembly, Fortaleza, Brazil, October 2013).</nciodm:CDISCDefinition>
                    <nciodm:PreferredTerm>Declaration of Helsinki</nciodm:PreferredTerm>
                </EnumeratedItem>
                <EnumeratedItem CodedValue="deep learning" nciodm:ExtCodeID="C176258">
                    <nciodm:CDISCDefinition>A subset of machine learning that is part of the broader family of machine learning methodologies based on artificial neural networks. A deep neural network has multiple layers between input and output layers to progressively extract higher level features from the raw input. [After DeepAI Machine Learning Glossary and Terms] See also machine learning, artificial intelligence (AI).</nciodm:CDISCDefinition>
                    <nciodm:PreferredTerm>Deep Learning</nciodm:PreferredTerm>
                </EnumeratedItem>
                <EnumeratedItem CodedValue="Define-XML" nciodm:ExtCodeID="C142506">
                    <nciodm:CDISCDefinition>A table in XML that transmits metadata that describes any tabular dataset structure. NOTE: When used with the CDISC content standards, it provides the metadata for human and animal model tabular datasets such as SDTM, SEND, and ADaM. [After CDISC.org] See also eXtensible markup language (XML) data element, XML (eXtensible Markup Language).</nciodm:CDISCDefinition>
                    <nciodm:PreferredTerm>Define.xml</nciodm:PreferredTerm>
                </EnumeratedItem>
                <EnumeratedItem CodedValue="demographic data" nciodm:ExtCodeID="C142508">
                    <nciodm:CDISCDefinition>Characteristics of subjects or study populations, which include such information as age, sex, family history of the disease or condition for which they are being treated, and other characteristics relevant to the study in which they are participating.</nciodm:CDISCDefinition>
                    <nciodm:PreferredTerm>Demographic Data</nciodm:PreferredTerm>
                </EnumeratedItem>
                <EnumeratedItem CodedValue="dependent variable" nciodm:ExtCodeID="C142509">
                    <nciodm:CDISCDefinition>Outcomes that are measured in an experiment and that are expected to change as a result of an experimental manipulation of the independent variable(s). [Center for advancement of Clinical Research]</nciodm:CDISCDefinition>
                    <nciodm:PreferredTerm>Dependent Variable</nciodm:PreferredTerm>
                </EnumeratedItem>
                <EnumeratedItem CodedValue="deployment" nciodm:ExtCodeID="C142538">
                    <nciodm:CDISCDefinition>Readying an electronic clinical trial system for field use by providing or disseminating capture devices, tokens, or passwords for users of an activated system. See activation.</nciodm:CDISCDefinition>
                    <nciodm:PreferredTerm>Electronic System Deployment</nciodm:PreferredTerm>
                </EnumeratedItem>
                <EnumeratedItem CodedValue="derived variable" nciodm:ExtCodeID="C142510">
                    <nciodm:CDISCDefinition>New variable created as a function of existing variables and/or application of mathematical functions. See also variable, raw data.</nciodm:CDISCDefinition>
                    <nciodm:PreferredTerm>Derived Variable</nciodm:PreferredTerm>
                </EnumeratedItem>
                <EnumeratedItem CodedValue="design configuration" nciodm:ExtCodeID="C142442">
                    <nciodm:CDISCDefinition>Clinical trial design developed to compare treatment groups in a clinical trial. NOTE: The configuration usually requires randomization to one or more treatment arms, each arm being allocated a different (or no) treatment. examples include: Parallel Group Design, Crossover Design, Factorial Designs. [After ICH E9]</nciodm:CDISCDefinition>
                    <nciodm:PreferredTerm>Clinical Trial Design Configuration</nciodm:PreferredTerm>
                </EnumeratedItem>
                <EnumeratedItem CodedValue="development plan" nciodm:ExtCodeID="C142443">
                    <nciodm:CDISCDefinition>An ordered program of clinical trials, each with specific objectives. [adapted from ICH E9, see ICH E8]. See also clinical development plan.</nciodm:CDISCDefinition>
                    <nciodm:PreferredTerm>Clinical Trial Development Plan</nciodm:PreferredTerm>
                </EnumeratedItem>
                <EnumeratedItem CodedValue="diagnosis" nciodm:ExtCodeID="C15220">
                    <nciodm:CDISCDefinition>A process to identify the disease or condition that explains the symptoms and signs occurring in a patient. NOTE: The information required for diagnosis is collected from a history and physical examination of the patient and preferably confirmed by one or more diagnostic procedures such as laboratory tests, radiologic studies and other technical investigations. [After "Making a diagnosis", John P. Langlois, Chapter 10 in Fundamentals of clinical practice (2002). Mark B. Mengel, Warren Lee Holleman, Scott A. Fields. 2nd edition.] See also treatment, intervention, disease, sign, symptom.</nciodm:CDISCDefinition>
                    <nciodm:PreferredTerm>Diagnosis</nciodm:PreferredTerm>
                </EnumeratedItem>
                <EnumeratedItem CodedValue="DIBD (development international birth date)" nciodm:ExtCodeID="C156648">
                    <nciodm:CDISCDefinition>The sponsor's first authorization to conduct a clinical trial in any country worldwide. NOTE: Used to start the annual period for the Development Safety Update Report (DSUR). [After CIOMS VII; ICH E2F]</nciodm:CDISCDefinition>
                    <nciodm:PreferredTerm>Development International Birth Date</nciodm:PreferredTerm>
                </EnumeratedItem>
                <EnumeratedItem CodedValue="digital signature" nciodm:ExtCodeID="C80447">
                    <nciodm:CDISCDefinition>An electronic signature, based on cryptographic methods of originator authentication, computed by using a set of rules and a set of parameters, such that the identity of the signer and the integrity of the data can be verified. [21 CFR 11]</nciodm:CDISCDefinition>
                    <nciodm:PreferredTerm>Digital Signature</nciodm:PreferredTerm>
                </EnumeratedItem>
                <EnumeratedItem CodedValue="direct access" nciodm:ExtCodeID="C142511">
                    <nciodm:CDISCDefinition>Permission to examine, analyze, verify, and reproduce any records and reports that are important to evaluation of a clinical trial. NOTE: The party (e.g., domestic and foreign regulatory authorities, sponsor's monitors and auditors) with direct access should take all reasonable precautions within the constraints of the applicable regulatory requirement(s) to maintain the confidentiality of subjects' identities and sponsor's proprietary information. [ICH E6 Glossary]</nciodm:CDISCDefinition>
                    <nciodm:PreferredTerm>Direct Access</nciodm:PreferredTerm>
                </EnumeratedItem>
                <EnumeratedItem CodedValue="direct entry" nciodm:ExtCodeID="C142512">
                    <nciodm:CDISCDefinition>Recording of data by human or automated action where an electronic record is the original means of capturing the data into an electronic records system without a paper source document. Examples are an individual keying original observations into a system or the automatic recording into the system of the output from measuring devices such as a balance that measures subject's body weight or an ECG machine. Compare to data entry, data acquisition.</nciodm:CDISCDefinition>
                    <nciodm:PreferredTerm>Direct Data Entry</nciodm:PreferredTerm>
                </EnumeratedItem>
                <EnumeratedItem CodedValue="direct identifier" nciodm:ExtCodeID="C142513">
                    <nciodm:CDISCDefinition>A piece of data that can be used to uniquely identify an individual (e.g., name, patient ID, social security number, exact address, telephone number, e-mail address, government issued identifiers, passport/VISA numbers) either without additional information or with cross-linking through other information that is in the public domain. [After PhUSE De-identification Standard for SDTM 3.2, version 1.0.1.]</nciodm:CDISCDefinition>
                    <nciodm:PreferredTerm>Direct Identifier</nciodm:PreferredTerm>
                </EnumeratedItem>
                <EnumeratedItem CodedValue="discontinuation" nciodm:ExtCodeID="C142444">
                    <nciodm:CDISCDefinition>The act of concluding participation by an enrolled subject prior to completion of all protocol-required elements in a trial. NOTE: Four categories of discontinuation are distinguished: a) dropout: Active discontinuation by a subject (also a noun referring to such a discontinued subject); b) investigator initiated discontinuation (e.g., for cause); c) loss to follow-up: cessation of participation without notice or action by the subject; d) sponsor initiated discontinuation. Note that subject discontinuation does not necessarily imply exclusion of subject data from analysis. "Termination of subject" has a history of synonymous use, but is now considered nonstandard. [After ICH E3, section 10.1 and FDA Guidance for Industry: Submission of Abbreviated Reports &amp; Synopses in Support of Marketing Applications, IV A] See also withdrawal.</nciodm:CDISCDefinition>
                    <nciodm:PreferredTerm>Study Subject Discontinuation</nciodm:PreferredTerm>
                </EnumeratedItem>
                <EnumeratedItem CodedValue="discrepancy" nciodm:ExtCodeID="C142473">
                    <nciodm:CDISCDefinition>The failure of a data point to pass a validation check. NOTE: Discrepancies may be detected by computerized edit checks or observed/ identified by the data reviewer as a result of manual data review. See also query.</nciodm:CDISCDefinition>
                    <nciodm:PreferredTerm>Data Discrepancy</nciodm:PreferredTerm>
                </EnumeratedItem>
                <EnumeratedItem CodedValue="disease" nciodm:ExtCodeID="C2991">
                    <nciodm:CDISCDefinition>Any abnormal condition of the body or mind that causes discomfort, dysfunction, or distress to the affected person. NOTE: The term is often used broadly to include injuries, disabilities, syndromes, symptoms, deviant behaviors, and atypical variations of structure and function. [After NCI Thesaurus] See also diagnosis.</nciodm:CDISCDefinition>
                    <nciodm:PreferredTerm>Disease or Disorder</nciodm:PreferredTerm>
                </EnumeratedItem>
                <EnumeratedItem CodedValue="document (HL7)" nciodm:ExtCodeID="C142571">
                    <nciodm:CDISCDefinition>An ordered presentation of XML elements, possibly including text and tabular analyses, description, and figures. Descriptors for HL7 documents include type, class, and element. NOTE: In HL7, a document can be either physical (referring to the paper) or logical (referring to the content) with the following characteristics: 1) Stewardship; 2) Potential for authentication; 3) Wholeness; 4) Human readability; 5) Persistence; 6) Global vs. local context.</nciodm:CDISCDefinition>
                    <nciodm:PreferredTerm>HL7 Document</nciodm:PreferredTerm>
                </EnumeratedItem>
                <EnumeratedItem CodedValue="document root" nciodm:ExtCodeID="C142751">
                    <nciodm:CDISCDefinition>The element in an XML document that contains all other elements; the first element in the document. [SPL Glossary]</nciodm:CDISCDefinition>
                    <nciodm:PreferredTerm>XML Document Root</nciodm:PreferredTerm>
                </EnumeratedItem>
                <EnumeratedItem CodedValue="document type definition (DTD)" nciodm:ExtCodeID="C142515">
                    <nciodm:CDISCDefinition>XML specification for content and presentation of data and text in a document including definitions for the elements considered to be legal in the document. NOTE: Agreeing on a common DTD facilitates interoperability among systems incorporating the agreed standards. [From Electronic Submission File Formats and Specifications. Orientation and Best Practices For Data Formats and Submission to The Center For Tobacco Products. January 2018; Providing Regulatory Submissions in Electronic Format - Certain Human Pharmaceutical Product Applications and Related Submissions Using the eCTD Specifications Guidance for Industry. January 2019]</nciodm:CDISCDefinition>
                    <nciodm:PreferredTerm>Document Type Definition</nciodm:PreferredTerm>
                </EnumeratedItem>
                <EnumeratedItem CodedValue="documentation" nciodm:ExtCodeID="C19498">
                    <nciodm:CDISCDefinition>All records, in any form (including but not limited to written, electronic, magnetic, and optical records, and scans, x-rays, and electrocardiograms) that describe or record the methods, conduct, and/or results of a trial, the factors affecting a trial, and the actions taken. [ICH E6 Glossary]</nciodm:CDISCDefinition>
                    <nciodm:PreferredTerm>Document</nciodm:PreferredTerm>
                </EnumeratedItem>
                <EnumeratedItem CodedValue="domain name" nciodm:ExtCodeID="C54076">
                    <nciodm:CDISCDefinition>The way a particular web server is identified on the internet. For example, www.fda.gov names the World Wide Web (www) server for the Food and Drug administration, which is a government (.gov) entity. [Center for advancement of Clinical Research]</nciodm:CDISCDefinition>
                    <nciodm:PreferredTerm>Domain Name</nciodm:PreferredTerm>
                </EnumeratedItem>
                <EnumeratedItem CodedValue="domain" nciodm:ExtCodeID="C62289">
                    <nciodm:CDISCDefinition>A collection of logically related observations with a common, specific topic that are normally collected for all subjects in a clinical investigation. NOTE: The logic of the relationship may pertain to the scientific subject matter of the data or to its role in the trial. Example domains include laboratory test results (LB), adverse events (AE), concomitant medications (CM). [After SDTM Implementation Guide version 3.2, CDISC.org] See also general observation class.</nciodm:CDISCDefinition>
                    <nciodm:PreferredTerm>Domain</nciodm:PreferredTerm>
                </EnumeratedItem>
                <EnumeratedItem CodedValue="dosage form" nciodm:ExtCodeID="C42636">
                    <nciodm:CDISCDefinition>Physical characteristics of a drug product, (e.g., tablet, capsule, or solution) that contains a drug substance, generally-but not necessarily-in association with one or more other ingredients. [21 CFR 314.3 and after IDMP]. See also drug product.</nciodm:CDISCDefinition>
                    <nciodm:PreferredTerm>Pharmaceutical Dosage Form</nciodm:PreferredTerm>
                </EnumeratedItem>
                <EnumeratedItem CodedValue="dosage regimen" nciodm:ExtCodeID="C142516">
                    <nciodm:CDISCDefinition>The number of doses per given time period; the elapsed time between doses (for example, every six hours) or the time that the doses are to be given (for example, at 8 a.m. and 4 p.m. daily); and/or the amount of a medicine (the number of capsules, for example) to be given at each specific dosing time. [from Center for advancement of Clinical Research]</nciodm:CDISCDefinition>
                    <nciodm:PreferredTerm>Dosage Regimen</nciodm:PreferredTerm>
                </EnumeratedItem>
                <EnumeratedItem CodedValue="dosage" nciodm:ExtCodeID="C94394">
                    <nciodm:CDISCDefinition>The amount of drug administered to a patient or test subject over a period of time; a regulated time bound administration of individual doses. NOTE: For example, a daily dosage specified in a prescription or a clinical trial, such as one 100mg tablet taken 4 times per day. [After AMA Manual of style]</nciodm:CDISCDefinition>
                    <nciodm:PreferredTerm>Cumulative Dose</nciodm:PreferredTerm>
                </EnumeratedItem>
                <EnumeratedItem CodedValue="dose strength" nciodm:ExtCodeID="C142517">
                    <nciodm:CDISCDefinition>The strength of a drug product, which indicates the amount of each active ingredient in a single dose. For liquids, it is the proportion of each active substance to the volume of a liquid dosage form. [After FDA Glossary of Terms]</nciodm:CDISCDefinition>
                    <nciodm:PreferredTerm>dose strength</nciodm:PreferredTerm>
                </EnumeratedItem>
                <EnumeratedItem CodedValue="dose" nciodm:ExtCodeID="C25488">
                    <nciodm:CDISCDefinition>Specified quantity of a medicine, to be taken at one time or at stated intervals. [ISO 11615:2012 Health Informatics]</nciodm:CDISCDefinition>
                    <nciodm:PreferredTerm>Dose</nciodm:PreferredTerm>
                </EnumeratedItem>
                <EnumeratedItem CodedValue="double-blind study" nciodm:ExtCodeID="C15228">
                    <nciodm:CDISCDefinition>A study in which neither the subject nor the investigator nor the research team interacting with the subject or data during the trial knows what treatment a subject is receiving.</nciodm:CDISCDefinition>
                    <nciodm:PreferredTerm>Double Blind Study</nciodm:PreferredTerm>
                </EnumeratedItem>
                <EnumeratedItem CodedValue="double-dummy" nciodm:ExtCodeID="C142518">
                    <nciodm:CDISCDefinition>A technique for retaining the blind when administering supplies in a clinical trial, when the two treatments cannot be made identical. supplies are prepared for Treatment a (active and indistinguishable placebo) and for Treatment B (active and indistinguishable placebo). subjects then take two sets of treatment; either a (active) and B (placebo), or a (placebo) and B (active). [ICH E9]</nciodm:CDISCDefinition>
                    <nciodm:PreferredTerm>Double-Dummy</nciodm:PreferredTerm>
                </EnumeratedItem>
                <EnumeratedItem CodedValue="dropout" nciodm:ExtCodeID="C142445">
                    <nciodm:CDISCDefinition>A subject in a clinical trial who for any reason fails to continue in the trial until the last visit or observation required of him/her by the study protocol. [from ICH E9]</nciodm:CDISCDefinition>
                    <nciodm:PreferredTerm>Clinical Trial Dropout</nciodm:PreferredTerm>
                </EnumeratedItem>
                <EnumeratedItem CodedValue="drug development process" nciodm:ExtCodeID="C142519">
                    <nciodm:CDISCDefinition>The program for advancing an investigational product from preclinical studies through approval for marketing following review by regulatory agencies.</nciodm:CDISCDefinition>
                    <nciodm:PreferredTerm>Drug Development Process</nciodm:PreferredTerm>
                </EnumeratedItem>
                <EnumeratedItem CodedValue="drug distribution" nciodm:ExtCodeID="C79370">
                    <nciodm:CDISCDefinition>In pharmacokinetics, the processes that control transfer of a drug from the site of measurement to its target and other tissues. See also ADME.</nciodm:CDISCDefinition>
                    <nciodm:PreferredTerm>Pharmacokinetics: Distribution</nciodm:PreferredTerm>
                </EnumeratedItem>
                <EnumeratedItem CodedValue="drug product" nciodm:ExtCodeID="C459">
                    <nciodm:CDISCDefinition>A finished dosage form, for example, tablet, capsule, solution, etc., that contains an active drug ingredient generally, but not necessarily, in association with inactive ingredients. The term also includes a finished dosage form that does not contain an active ingredient but is intended to be used as a placebo. [21CFR210.3] See also medicinal product.</nciodm:CDISCDefinition>
                    <nciodm:PreferredTerm>Medication</nciodm:PreferredTerm>
                </EnumeratedItem>
                <EnumeratedItem CodedValue="drug" nciodm:ExtCodeID="C1909">
                    <nciodm:CDISCDefinition>Article other than food intended for use in the diagnosis, cure, mitigation, treatment, or prevention of disease; or intended to affect the structure or any function of the body. not a device or a component, part, or accessory of a device. [from FDA Glossary of Terms, CDER] See also medicinal product, active substance.</nciodm:CDISCDefinition>
                    <nciodm:PreferredTerm>Pharmacologic Substance</nciodm:PreferredTerm>
                </EnumeratedItem>
                <EnumeratedItem CodedValue="dynamic HTML" nciodm:ExtCodeID="C142520">
                    <nciodm:CDISCDefinition>Collective term for a combination of tags and options, style sheets, and programming that allows users to create web pages in hypertext Mark-up language (HTML) that are more responsive to user interaction than previous versions of HTML.</nciodm:CDISCDefinition>
                    <nciodm:PreferredTerm>Dynamic Hypertext Markup Language</nciodm:PreferredTerm>
                </EnumeratedItem>
                <EnumeratedItem CodedValue="early termination of trial" nciodm:ExtCodeID="C184387">
                    <nciodm:CDISCSynonym>premature termination of trial</nciodm:CDISCSynonym>
                    <nciodm:CDISCDefinition>The premature end of a clinical trial due to any reason before the conditions specified in the protocol are complied with. [REGULATION (EU) No 536/2014 OF THE EUROPEAN PARLIAMENT AND OF THE COUNCIL of 16 April 2014 on clinical trials on medicinal products for human use, and repealing Directive 2001/20/EC; ICH E6] See also termination (of a clinical trial).</nciodm:CDISCDefinition>
                    <nciodm:PreferredTerm>Early Termination of Trial</nciodm:PreferredTerm>
                </EnumeratedItem>
                <EnumeratedItem CodedValue="eCertified copy" nciodm:ExtCodeID="C142525">
                    <nciodm:CDISCDefinition>A copy of an electronic record that is created through the application of a process validated to preserve the data and metadata of the original and where the validation of the process is certified by the dated signature of an authorized person. [CDISC, after EMA/INS/GCP/454280/2010 GCP Inspectors Working Group (GCP IWG) June 2010]</nciodm:CDISCDefinition>
                    <nciodm:PreferredTerm>Electronic Certified Copy</nciodm:PreferredTerm>
                </EnumeratedItem>
                <EnumeratedItem CodedValue="eClinical trial" nciodm:ExtCodeID="C142526">
                    <nciodm:CDISCSynonym>eClinical investigation</nciodm:CDISCSynonym>
                    <nciodm:CDISCSynonym>eClinical study</nciodm:CDISCSynonym>
                    <nciodm:CDISCDefinition>Clinical trial in which primarily electronic processes are used to plan, collect (acquire), access, exchange, and archive data required for conduct, management, analysis, and reporting of the trial. NOTE: FDA has recently drawn a distinction between studies and trials. Both words refer to systematic efforts to obtain evidence relevant to regulatory authorities, but, depending on regulatory context and particularly in the case of postmarketing commitments, a study might not be the appropriate word for a clinical trial (prospective, controlled, randomized), but should be reserved instead for surveillance, structured gathering of information, epidemiological studies, or even animal studies [Guidance for industry Postmarketing studies and Clinical Trials-implementation of section 505(o) of the Federal Food, Drug, and Cosmetic act]. See also clinical study, clinical trial.</nciodm:CDISCDefinition>
                    <nciodm:PreferredTerm>Electronic Clinical Trial</nciodm:PreferredTerm>
                </EnumeratedItem>
                <EnumeratedItem CodedValue="eCRF (electronic case report form)" nciodm:ExtCodeID="C142523">
                    <nciodm:CDISCDefinition>An auditable electronic record of information that is reported to the sponsor (or sponsor's agent such as an EDC provider) on each trial subject to enable data pertaining to a clinical investigation protocol to be systematically captured, reviewed, managed, stored, analyzed, and reported. The eCRF is a CRF in which related data items and their associated comments, notes, and signatures are linked programmatically. See also case report form, CRF, eSRF.[CSUICI; Revised from FDA Final Guidance on eSource]</nciodm:CDISCDefinition>
                    <nciodm:PreferredTerm>Electronic Case Report Form</nciodm:PreferredTerm>
                </EnumeratedItem>
                <EnumeratedItem CodedValue="eCRT (electronic case report tabulation)" nciodm:ExtCodeID="C142524">
                    <nciodm:CDISCDefinition>CRTs provided in electronic format for esubmissions (electronic regulatory submissions). NOTE: according to FDA guidance, eCRTs are datasets provided as SAS Transport files with accompanying documentation in electronic submissions. They enable reviewers to analyze each dataset for each study. Each CRF domain should be provided as a single dataset; however, additional datasets suitable for reproducing and confirming analyses may also be needed. Becoming obsolete, being replaced by SDTM.</nciodm:CDISCDefinition>
                    <nciodm:PreferredTerm>Electronic Case Report Tabulation</nciodm:PreferredTerm>
                </EnumeratedItem>
                <EnumeratedItem CodedValue="EDC (electronic data capture)" nciodm:ExtCodeID="C142527">
                    <nciodm:CDISCDefinition>The process of collecting clinical trial data into a permanent electronic form. NOTE: Permanent in the context of these definitions implies that any changes made to the electronic data are recorded with an audit trail. EDC usually denotes manual entry of CRF data by transcription from source documents. The transcription is typically done by personnel at investigative sites. [After Guidance for Industry, Use of Electronic Health Record Data in Clinical Investigations, July 2018] See also data entry, direct data entry, data acquisition, data capture.</nciodm:CDISCDefinition>
                    <nciodm:PreferredTerm>Electronic Data Capture</nciodm:PreferredTerm>
                </EnumeratedItem>
                <EnumeratedItem CodedValue="edit check" nciodm:ExtCodeID="C142521">
                    <nciodm:CDISCDefinition>An auditable process, usually automated, of assessing the content of a data field against its expected logical, format, range, or other properties that is intended to reduce error. NOTE: Time-of-entry edit checks are a type of edit check that is run (executed) at the time data are first captured or transcribed to an electronic device at the time entry is completed of each field or group of fields on a form. Back-end edit checks are a type that is run against data that has been entered or captured electronically and has also been received by a centralized data store.</nciodm:CDISCDefinition>
                    <nciodm:PreferredTerm>Edit Check</nciodm:PreferredTerm>
                </EnumeratedItem>
                <EnumeratedItem CodedValue="EDR (electronic document room)" nciodm:ExtCodeID="C156649">
                    <nciodm:CDISCDefinition>The electronic document room is an extension of the e-Submissions central document room. A check is performed on each submission sent to the EDR for file formats used and the integrity of bookmarks and hypertext links.</nciodm:CDISCDefinition>
                    <nciodm:PreferredTerm>Electronic Document Room</nciodm:PreferredTerm>
                </EnumeratedItem>
                <EnumeratedItem CodedValue="effect" nciodm:ExtCodeID="C18919">
                    <nciodm:CDISCSynonym>treatment effect</nciodm:CDISCSynonym>
                    <nciodm:CDISCDefinition>An effect attributed to a treatment in a clinical trial. In most clinical trials, the treatment effect of interest is a comparison (or contrast) of two or more treatments. [ICH E9] See also treatment effect.</nciodm:CDISCDefinition>
                    <nciodm:PreferredTerm>Outcome of Therapy</nciodm:PreferredTerm>
                </EnumeratedItem>
                <EnumeratedItem CodedValue="effectiveness" nciodm:ExtCodeID="C142522">
                    <nciodm:CDISCDefinition>A measure of intended effect on the disease or condition based on regulatory determination made on the basis of clinical efficacy and other substantial evidence, including real-world observations. [After Providing Clinical Evidence of Effectiveness for Human Drug and Biological Products. FDA GUIDANCE DOCUMENT. MAY 1998. After Demonstrating Substantial Evidence of Effectiveness for Human Drug and Biological Products. FDA Guidance for Industry (DRAFT GUIDANCE). December 2019] See also efficacy.</nciodm:CDISCDefinition>
                    <nciodm:PreferredTerm>Effectiveness</nciodm:PreferredTerm>
                </EnumeratedItem>
                <EnumeratedItem CodedValue="efficacy" nciodm:ExtCodeID="C88183">
                    <nciodm:CDISCDefinition>A measure of intended effect on the disease or condition based on adequate and well-controlled clinical trials. [After Providing Clinical Evidence of Effectiveness for Human Drug and Biological Products. FDA GUIDANCE DOCUMENT. MAY 1998. After Demonstrating Substantial Evidence of Effectiveness for Human Drug and Biological Products. FDA Guidance for Industry (DRAFT GUIDANCE). December 2019] See also effectiveness.</nciodm:CDISCDefinition>
                    <nciodm:PreferredTerm>Efficacy</nciodm:PreferredTerm>
                </EnumeratedItem>
                <EnumeratedItem CodedValue="EHR (electronic health record)" nciodm:ExtCodeID="C142529">
                    <nciodm:CDISCDefinition>An electronic record for healthcare providers to create, import, store, and use clinical information for patient care, according to nationally recognized interoperability standards. NOTE: The EHR has the following distinguishing features: able to be obtained from multiple sources; shareable; interoperable; accessible to authorized parties. [After National Office of Health Information Technology-HIT, USHHS]</nciodm:CDISCDefinition>
                    <nciodm:PreferredTerm>Electronic Health Record</nciodm:PreferredTerm>
                </EnumeratedItem>
                <EnumeratedItem CodedValue="electronic personal health record (ePHR)" nciodm:ExtCodeID="C142530">
                    <nciodm:CDISCDefinition>An electronic record for individuals to create, import, store, and use clinical information to support their own health.</nciodm:CDISCDefinition>
                    <nciodm:PreferredTerm>Electronic Personal Health Record</nciodm:PreferredTerm>
                </EnumeratedItem>
                <EnumeratedItem CodedValue="electronic record" nciodm:ExtCodeID="C142531">
                    <nciodm:CDISCDefinition>Any combination of text, graphics, data, audio, pictorial, or other information representation in digital form that is created, modified, maintained, archived, retrieved, or distributed by a computer system. [21 CFR 11.3(b) (6)]</nciodm:CDISCDefinition>
                    <nciodm:PreferredTerm>Electronic Record</nciodm:PreferredTerm>
                </EnumeratedItem>
                <EnumeratedItem CodedValue="electronic signature" nciodm:ExtCodeID="C142533">
                    <nciodm:CDISCSynonym>eSignature</nciodm:CDISCSynonym>
                    <nciodm:CDISCDefinition>A computer data compilation of any symbol or series of symbols, executed, adopted, or authorized by an individual to be the legally binding equivalent of the individual's handwritten signature. [CSUICI; 21 CFR 11.3(7)]</nciodm:CDISCDefinition>
                    <nciodm:PreferredTerm>Electronic Signature</nciodm:PreferredTerm>
                </EnumeratedItem>
                <EnumeratedItem CodedValue="emergency use authorization" nciodm:ExtCodeID="C96966">
                    <nciodm:CDISCSynonym>EUA</nciodm:CDISCSynonym>
                    <nciodm:CDISCDefinition>Approval by FDA for the emergency use of certain unapproved medical products or an unapproved use of an approved medical product for certain emergency circumstances, when applied for under a declared health emergency. These medical products may be referred to as medical countermeasures (MCMs) and may include drugs, biologics, and devices. [After Emergency Use Authorization of Medical Products and Related Authorities. FDA Guidance for Industry and Other Stakeholders. January 2017.] See also pre-approval access.</nciodm:CDISCDefinition>
                    <nciodm:PreferredTerm>Emergency Use Authorization</nciodm:PreferredTerm>
                </EnumeratedItem>
                <EnumeratedItem CodedValue="EMR (electronic medical record)" nciodm:ExtCodeID="C45259">
                    <nciodm:CDISCDefinition>An electronic record for healthcare providers within one healthcare organization to create, store, and use clinical information for patient care. An electronic record derived from a computerized system used primarily for delivering patient care in a clinical setting. NOTE: EMRs (or EHRs) may serve as source documents, and such data could serve also as source data for clinical trials provided that the controls on the EMR system and the transfer of such data to the eClinical trial system were to fulfill regulatory requirements (e.g., 21 CFR 11). [After Guidance for Industry, Use of Electronic Health Record Data in Clinical Investigations, July 2018]</nciodm:CDISCDefinition>
                    <nciodm:PreferredTerm>Electronic Medical Record</nciodm:PreferredTerm>
                </EnumeratedItem>
                <EnumeratedItem CodedValue="end-point assessment medicinal product" nciodm:ExtCodeID="C165826">
                    <nciodm:CDISCDefinition>Medicinal products given to the subject as an aid to assess a relevant clinical trial end-point; it is not being tested or used as a reference in the clinical trial. [After Recommendations from the expert group on clinical trials for the implementation of Regulation (EU) No 536/2014' dd 28 June 2017]</nciodm:CDISCDefinition>
                    <nciodm:PreferredTerm>End-point Assessment Medicinal Product</nciodm:PreferredTerm>
                </EnumeratedItem>
                <EnumeratedItem CodedValue="endemic disease" nciodm:ExtCodeID="C171503">
                    <nciodm:CDISCDefinition>The constant presence of a disease or infectious agent within a given geographic area or population group; may also refer to the usual prevalence of a given disease within such area or group. [A dictionary of epidemiology, edited for the International Epidemiological Association by John M. Last, Oxford University Press 2001]</nciodm:CDISCDefinition>
                    <nciodm:PreferredTerm>Endemic Disorder</nciodm:PreferredTerm>
                </EnumeratedItem>
                <EnumeratedItem CodedValue="endpoint" nciodm:ExtCodeID="C25212">
                    <nciodm:CDISCDefinition>A defined variable intended to reflect an outcome of interest that is statistically analyzed to address a particular research question. NOTE: A precise definition of an endpoint typically specifies the type of assessments made, the timing of those assessments, the assessment tools used, and possibly other details, as applicable, such as how multiple assessments within an individual are to be combined. [After BEST Resource] See also outcome, variable.</nciodm:CDISCDefinition>
                    <nciodm:PreferredTerm>End Point</nciodm:PreferredTerm>
                </EnumeratedItem>
                <EnumeratedItem CodedValue="enrolled" nciodm:ExtCodeID="C142715">
                    <nciodm:CDISCDefinition>Status assigned to a subject who agrees to participate in a study, following completion of the informed consent process and meeting eligibility criteria as specified in the protocol. NOTE: Enrollment routinely requires verification of eligibility and inclusion in the analysis database. A less common definition confers enrolled status at the signing of an informed consent form, e.g., Clinicaltrials.gov. See also informed consent, enrollment.</nciodm:CDISCDefinition>
                    <nciodm:PreferredTerm>Study Subject Enrolled</nciodm:PreferredTerm>
                </EnumeratedItem>
                <EnumeratedItem CodedValue="enrollment (cumulative)" nciodm:ExtCodeID="C142466">
                    <nciodm:CDISCDefinition>Current enrollment including any subjects who were once enrolled and have ended participation.</nciodm:CDISCDefinition>
                    <nciodm:PreferredTerm>Cumulative Enrollment</nciodm:PreferredTerm>
                </EnumeratedItem>
                <EnumeratedItem CodedValue="enrollment (current)" nciodm:ExtCodeID="C142467">
                    <nciodm:CDISCDefinition>Subjects actively continuing to participate in a clinical trial as of the current date.</nciodm:CDISCDefinition>
                    <nciodm:PreferredTerm>Current Enrollment</nciodm:PreferredTerm>
                </EnumeratedItem>
                <EnumeratedItem CodedValue="enrollment" nciodm:ExtCodeID="C37948">
                    <nciodm:CDISCDefinition>The action of enrolling one or more subjects. NOTE: The subject will have met the inclusion/exclusion criteria to participate in the trial and will have signed an informed consent form. [After Glossary Of Terms On Clinical Trials For Patient Engagement Advisory Committee Meeting] See also enrolled.</nciodm:CDISCDefinition>
                    <nciodm:PreferredTerm>Enrollment</nciodm:PreferredTerm>
                </EnumeratedItem>
                <EnumeratedItem CodedValue="epidemic" nciodm:ExtCodeID="C171452">
                    <nciodm:CDISCDefinition>The occurrence in a community or region of cases of an illness, specific health-related behavior, or other health-related events clearly in excess of normal expectancy. NOTE: The community or region and the period in which the cases occur are specified precisely. The number of cases indicating the presence of an epidemic varies according to the agent, size, and type of population exposed; previous experience or lack of exposure to the disease; and time and place of occurrence. [After A dictionary of epidemiology, edited for the International Epidemiological Association by John M. Last, OXFORD UNIVERSITY PRESS 2001]</nciodm:CDISCDefinition>
                    <nciodm:PreferredTerm>Epidemic Disorder</nciodm:PreferredTerm>
                </EnumeratedItem>
                <EnumeratedItem CodedValue="epoch" nciodm:ExtCodeID="C71738">
                    <nciodm:CDISCDefinition>Planned interval of time in the conduct of a study wherein an activity is specified and consistent, e.g., specific treatment dose or study activity such as Screening. NOTE: A CDISC variable used in the SDTM model to indicate a time period defined in the protocol with a study-specific purpose. See also arm, visit, phase (within a study).</nciodm:CDISCDefinition>
                    <nciodm:PreferredTerm>Clinical Trial Epoch</nciodm:PreferredTerm>
                </EnumeratedItem>
                <EnumeratedItem CodedValue="ePRO" nciodm:ExtCodeID="C137811">
                    <nciodm:CDISCDefinition>Patient reported outcome data initially captured electronically. NOTE: Usually ePRO data is captured as eSource. [DIA ePRO Working Group]. See also patient reported outcome, PRO, eSource.</nciodm:CDISCDefinition>
                    <nciodm:PreferredTerm>Electronic Patient-reported Outcome System</nciodm:PreferredTerm>
                </EnumeratedItem>
                <EnumeratedItem CodedValue="equipoise" nciodm:ExtCodeID="C142428">
                    <nciodm:CDISCDefinition>A state in which an investigator is uncertain about which arm of a clinical trial would be therapeutically superior for a patient. NOTE: An investigator who has a treatment preference or finds out that one arm of a comparative trial offers a clinically therapeutic advantage should disclose this information to subjects participating in the trial.</nciodm:CDISCDefinition>
                    <nciodm:PreferredTerm>Clinical Equipoise</nciodm:PreferredTerm>
                </EnumeratedItem>
                <EnumeratedItem CodedValue="equivalence trial" nciodm:ExtCodeID="C142539">
                    <nciodm:CDISCDefinition>A trial with the primary objective of showing that the response to two or more treatments differs by an amount that is clinically unimportant. NOTE: This is usually demonstrated by showing that the true treatment difference is likely to lie between a lower and an upper equivalence margin of clinically acceptable differences.</nciodm:CDISCDefinition>
                    <nciodm:PreferredTerm>Equivalence Trial</nciodm:PreferredTerm>
                </EnumeratedItem>
                <EnumeratedItem CodedValue="eSource data" nciodm:ExtCodeID="C142534">
                    <nciodm:CDISCDefinition>Source data captured initially into a permanent electronic record (eSource document) used for the reconstruction and evaluation of a clinical study or a source data item included in an eCRF when direct entry is made. NOTE: permanent in the context of these definitions implies that any changes made to the electronic data are recorded via an audit trail. See also eSource document, source data, permanent data, data originator. [From body of FDA Final Guidance on eSource]</nciodm:CDISCDefinition>
                    <nciodm:PreferredTerm>Electronic Source Data</nciodm:PreferredTerm>
                </EnumeratedItem>
                <EnumeratedItem CodedValue="eSource document" nciodm:ExtCodeID="C142535">
                    <nciodm:CDISCDefinition>Electronic record containing source data for a clinical trial, used to aggregate a particular instance of eSource data items for capture, transmission, storage, and/ or display, and serving as a source document for a clinical investigation. NOTE: Electronic Source documents are recorded in electronic systems according to conventions (such as those for PDF documents) that ensure that all the fields of eSource data and associated contextual information (e.g. time of capture, time zone, authorship, origin, signatures, revisions, etc.) are linked to each other in a particular structure for presentation. The encoded specifications in the electronic record thus serve the same role as have the physical properties of paper (binding data items together). eSource documents are subject to regulations and guidance that apply to source documents. See also source documents. [relevant to FDA Final Guidance on eSource]</nciodm:CDISCDefinition>
                    <nciodm:PreferredTerm>Electronic Source Document</nciodm:PreferredTerm>
                </EnumeratedItem>
                <EnumeratedItem CodedValue="eSource" nciodm:ExtCodeID="C142536">
                    <nciodm:CDISCDefinition>Source record that is electronic. See also source, electronic record.</nciodm:CDISCDefinition>
                    <nciodm:PreferredTerm>Electronic Source Record</nciodm:PreferredTerm>
                </EnumeratedItem>
                <EnumeratedItem CodedValue="eSRF (electronic source report form)" nciodm:ExtCodeID="C142537">
                    <nciodm:CDISCDefinition>The human-readable rendering of an electronic record serving as an eSource document that is part of a case history. The eSRF supports capture, transmission, storage, editing and/ or display of eSource documents (original records and certified copies of original records of clinical findings, observations, or other activities in a clinical investigation) used for reconstructing and evaluating the investigation. NOTE: Intended use distinguishes eCRF and eSRF. The eCRF is for capture, review and editing of protocol data belonging to the sponsor; the eSRF is for the human-readable representation of the eSource document for review or to maintain the eSource document that is part of the case history under 21CFR312.62. See also eCRF, eSource document. [CDISC, relevant to FDA Final Guidance on eSource]</nciodm:CDISCDefinition>
                    <nciodm:PreferredTerm>Electronic Source Report Form</nciodm:PreferredTerm>
                </EnumeratedItem>
                <EnumeratedItem CodedValue="essential documents" nciodm:ExtCodeID="C142540">
                    <nciodm:CDISCDefinition>Documents that individually and collectively permit evaluation of the conduct of a study and the quality of the data produced. [ICH E6 Glossary]</nciodm:CDISCDefinition>
                    <nciodm:PreferredTerm>Essential Trial Document</nciodm:PreferredTerm>
                </EnumeratedItem>
                <EnumeratedItem CodedValue="established name" nciodm:ExtCodeID="C97104">
                    <nciodm:CDISCDefinition>The official name of a drug substance. [Food, Drug, and Cosmetic Act]</nciodm:CDISCDefinition>
                    <nciodm:PreferredTerm>Established Drug Name</nciodm:PreferredTerm>
                </EnumeratedItem>
                <EnumeratedItem CodedValue="ethics committee" nciodm:ExtCodeID="C142541">
                    <nciodm:CDISCDefinition>Group convened to protect research subjects. NOTE: Such bodies, depending on the country or region, are abbreviated as: CCI, CCPPRB, CHR, CPPHS, CRB, EAB, HEX, HSRC, LREC, MREC, NIRB, NRB, and REB. See also institutional review board, independent ethics committee.</nciodm:CDISCDefinition>
                    <nciodm:PreferredTerm>Ethics Committee</nciodm:PreferredTerm>
                </EnumeratedItem>
                <EnumeratedItem CodedValue="ethnicity" nciodm:ExtCodeID="C16564">
                    <nciodm:CDISCDefinition>Denotes social groups with a shared history, sense of identity, geography, and cultural roots.</nciodm:CDISCDefinition>
                    <nciodm:PreferredTerm>Ethnic Group</nciodm:PreferredTerm>
                </EnumeratedItem>
                <EnumeratedItem CodedValue="European Medicines Agency (EMA)" nciodm:ExtCodeID="C142543">
                    <nciodm:CDISCDefinition>The regulatory agency for the EU.</nciodm:CDISCDefinition>
                    <nciodm:PreferredTerm>European Medicines Agency</nciodm:PreferredTerm>
                </EnumeratedItem>
                <EnumeratedItem CodedValue="evaluable (for efficacy and safety)" nciodm:ExtCodeID="C142546">
                    <nciodm:CDISCDefinition>Pertains to data or subjects that meet Statistical Analysis Plan criteria for inclusion in efficacy/safety datasets.</nciodm:CDISCDefinition>
                    <nciodm:PreferredTerm>Evaluable for Safety and Efficacy</nciodm:PreferredTerm>
                </EnumeratedItem>
                <EnumeratedItem CodedValue="event" nciodm:ExtCodeID="C74589">
                    <nciodm:CDISCDefinition>Planned protocol activities such as randomization and study completion, and occurrences, conditions, or incidents independent of planned study evaluations occurring during the trial (e.g., adverse events) or prior to the trial (e.g., medical history). [After SDTM, www.cdisc.org] See also general observation class, intervention, finding.</nciodm:CDISCDefinition>
                    <nciodm:PreferredTerm>Protocol Event</nciodm:PreferredTerm>
                </EnumeratedItem>
                <EnumeratedItem CodedValue="exclusion criteria" nciodm:ExtCodeID="C25370">
                    <nciodm:CDISCDefinition>List of characteristics in a protocol, any one of which may exclude a potential subject from participation in a study.</nciodm:CDISCDefinition>
                    <nciodm:PreferredTerm>Exclusion Criteria</nciodm:PreferredTerm>
                </EnumeratedItem>
                <EnumeratedItem CodedValue="excretion" nciodm:ExtCodeID="C94618">
                    <nciodm:CDISCDefinition>The act or process of eliminating waste products from the body. See also ADME.</nciodm:CDISCDefinition>
                    <nciodm:PreferredTerm>Excretion</nciodm:PreferredTerm>
                </EnumeratedItem>
                <EnumeratedItem CodedValue="exploratory IND study" nciodm:ExtCodeID="C142547">
                    <nciodm:CDISCDefinition>A clinical study that is conducted early in Phase 1; involves very limited human exposure and has no therapeutic or diagnostic intent (e.g., screening studies, microdose studies) [FDA Guidance for industry, investigators, and Reviewers: exploratory IND studies, January 2006] See also Phase 0.</nciodm:CDISCDefinition>
                    <nciodm:PreferredTerm>Exploratory Investigational New Drug Study</nciodm:PreferredTerm>
                </EnumeratedItem>
                <EnumeratedItem CodedValue="exploratory study" nciodm:ExtCodeID="C39538">
                    <nciodm:CDISCDefinition>Phase 1 or 2 study during which the actions of a therapeutic intervention are assessed and measured. NOTE: Procedures in exploratory studies may appropriately be altered beyond the standard adequate and well controlled processes to expand the scope or method of investigation. [NOTE: After FDA eCOA Glossary] Compare to confirmatory study.</nciodm:CDISCDefinition>
                    <nciodm:PreferredTerm>Therapeutic Exploratory Study</nciodm:PreferredTerm>
                </EnumeratedItem>
                <EnumeratedItem CodedValue="exposure (individual)" nciodm:ExtCodeID="C156623">
                    <nciodm:CDISCDefinition>The result of an intentional contact (e.g., intervention, dosage, drug/product use, misuse, or abuse) or an unintentional contact (circumstantial events leading to unknown, inadvertent, or accidental contact) resulting in inputs to the body of an individual which can occur directly through primary bodily contact routes or indirectly through secondary contact routes (such as via fluids as in fetal exposure during pregnancy or lactation/breast feeding or other biological transfers). [After FDA, Reviewer Guidance Evaluating the Risks of Drug Exposure in Human Pregnancies] See also exposure, intervention, extent of exposure.</nciodm:CDISCDefinition>
                    <nciodm:PreferredTerm>Individual Exposure</nciodm:PreferredTerm>
                </EnumeratedItem>
                <EnumeratedItem CodedValue="exposure" nciodm:ExtCodeID="C17941">
                    <nciodm:CDISCDefinition>Contact between an agent and a target. A state of contact or close proximity to a medicinal product, chemical, pathogen, radioisotope or other substance. NOTE: Types of exposure may be described by many qualifiers (e.g., local, systemic, acute, chronic, cumulative, environmental, population, individual, gestational, or occupational.) See also exposure (individual), intervention, extent of exposure. [After International Programme on Chemical Safety (IPCS) 2004 WHO]</nciodm:CDISCDefinition>
                    <nciodm:PreferredTerm>Exposure</nciodm:PreferredTerm>
                </EnumeratedItem>
                <EnumeratedItem CodedValue="eXtensible markup language (XML) data element" nciodm:ExtCodeID="C142548">
                    <nciodm:CDISCDefinition>For XML, an item of data provided in a mark-up mode to allow machine processing. NOTE: The mark-up or tagging facilitates document indexing, search and retrieval, and provides standard conventions for insertion of codes. [After Study Data Technical Conformance Guide, Technical Specifications Document, March 2019] See also XML (eXtensible Markup Language), Define-XML.</nciodm:CDISCDefinition>
                    <nciodm:PreferredTerm>Extensible Markup Language Data Element</nciodm:PreferredTerm>
                </EnumeratedItem>
                <EnumeratedItem CodedValue="extent of exposure" nciodm:ExtCodeID="C156624">
                    <nciodm:CDISCDefinition>A variable of exposure taking into consideration the strength, dose, duration, frequency, route, and/or timing or gestational stage in utero and other factors. NOTE: Measures of concentrations in biological fluids and tissues may be used to attempt to quantify the extent of exposures (e.g., Cmax, Cmin, Css, AUC in pharmacokinetics or other exposure measurement and assessment models). [After, FDA Guidance for Industry Exposure-Response Relationships] See also exposure, exposure (individual), intervention.</nciodm:CDISCDefinition>
                    <nciodm:PreferredTerm>Extent of Exposure</nciodm:PreferredTerm>
                </EnumeratedItem>
                <EnumeratedItem CodedValue="extraction transformation load (ETL)" nciodm:ExtCodeID="C142549">
                    <nciodm:CDISCDefinition>A class of software applications for data extraction, transformation, and loading that are used to implement data interfaces between disparate database systems, often to populate data warehouses.</nciodm:CDISCDefinition>
                    <nciodm:PreferredTerm>Extraction Transformation Load</nciodm:PreferredTerm>
                </EnumeratedItem>
                <EnumeratedItem CodedValue="feels" nciodm:ExtCodeID="C142557">
                    <nciodm:CDISCDefinition>A patient's physical sensation (e.g., symptoms) or perceived mental state. A patient may feel pain, feel feverish, or perceive a severely low mood (as with depression). [FDA Clinical Outcome Assessment (COA) Glossary]</nciodm:CDISCDefinition>
                    <nciodm:PreferredTerm>Feels</nciodm:PreferredTerm>
                </EnumeratedItem>
                <EnumeratedItem CodedValue="field" nciodm:ExtCodeID="C25507">
                    <nciodm:CDISCDefinition>Locus on a data collection instrument (usually a CRF) for recording or displaying a data element. See data item.</nciodm:CDISCDefinition>
                    <nciodm:PreferredTerm>Data Field</nciodm:PreferredTerm>
                </EnumeratedItem>
                <EnumeratedItem CodedValue="File Transfer Protocol (FTP)" nciodm:ExtCodeID="C100047">
                    <nciodm:CDISCDefinition>A standard protocol for exchanging files between computers on the internet. See also TCP/IP.</nciodm:CDISCDefinition>
                    <nciodm:PreferredTerm>File Transfer Protocol</nciodm:PreferredTerm>
                </EnumeratedItem>
                <EnumeratedItem CodedValue="final report" nciodm:ExtCodeID="C115575">
                    <nciodm:CDISCDefinition>A written description of a trial/study of any therapeutic, prophylactic, or diagnostic agent conducted in human subjects, in which the clinical and statistical description, presentations, and analyses are fully integrated into a single report. [ICH E3]</nciodm:CDISCDefinition>
                    <nciodm:PreferredTerm>Clinical Trial Final Report</nciodm:PreferredTerm>
                </EnumeratedItem>
                <EnumeratedItem CodedValue="finding" nciodm:ExtCodeID="C3367">
                    <nciodm:CDISCDefinition>A meaningful interpretation of data or observations resulting from planned evaluations. Compare to conclusion, hypothesis. See also general observation class, intervention, event.</nciodm:CDISCDefinition>
                    <nciodm:PreferredTerm>Finding</nciodm:PreferredTerm>
                </EnumeratedItem>
                <EnumeratedItem CodedValue="first subject in - date, time (FSI - date, time)" nciodm:ExtCodeID="C142558">
                    <nciodm:CDISCSynonym>first patient in - date, time</nciodm:CDISCSynonym>
                    <nciodm:CDISCSynonym>FPI - date, time</nciodm:CDISCSynonym>
                    <nciodm:CDISCDefinition>The date and/or date and time the first subject is enrolled into a study. See also enrollment.</nciodm:CDISCDefinition>
                    <nciodm:PreferredTerm>First Subject In Date Time</nciodm:PreferredTerm>
                </EnumeratedItem>
                <EnumeratedItem CodedValue="first subject in - identity (FSI - identity)" nciodm:ExtCodeID="C142559">
                    <nciodm:CDISCSynonym>first patient in - identity</nciodm:CDISCSynonym>
                    <nciodm:CDISCSynonym>FPI - identity</nciodm:CDISCSynonym>
                    <nciodm:CDISCDefinition>The first subject enrolled. See also enrollment.</nciodm:CDISCDefinition>
                    <nciodm:PreferredTerm>First Subject In Identity</nciodm:PreferredTerm>
                </EnumeratedItem>
                <EnumeratedItem CodedValue="first subject screened - date, time" nciodm:ExtCodeID="C142560">
                    <nciodm:CDISCSynonym>first patient screened - date, time</nciodm:CDISCSynonym>
                    <nciodm:CDISCDefinition>The date and/or date and time the first subject signs the informed consent form and is screened for potential enrollment or randomization into a study, but has not yet been determined to meet the inclusion/exclusion criteria for the trial.</nciodm:CDISCDefinition>
                    <nciodm:PreferredTerm>First Subject Screened Date Time</nciodm:PreferredTerm>
                </EnumeratedItem>
                <EnumeratedItem CodedValue="first subject screened - identity" nciodm:ExtCodeID="C142561">
                    <nciodm:CDISCSynonym>first patient screened - identity</nciodm:CDISCSynonym>
                    <nciodm:CDISCDefinition>The first subject who is so screened.</nciodm:CDISCDefinition>
                    <nciodm:PreferredTerm>First Subject Screened Identity</nciodm:PreferredTerm>
                </EnumeratedItem>
                <EnumeratedItem CodedValue="first subject treated - date, time" nciodm:ExtCodeID="C142562">
                    <nciodm:CDISCSynonym>first patient treated - date, time</nciodm:CDISCSynonym>
                    <nciodm:CDISCDefinition>The date and/or date and time when the first subject receives the test article or placebo in a clinical investigation.</nciodm:CDISCDefinition>
                    <nciodm:PreferredTerm>First Subject Treated Date Time</nciodm:PreferredTerm>
                </EnumeratedItem>
                <EnumeratedItem CodedValue="first subject treated - identity" nciodm:ExtCodeID="C142563">
                    <nciodm:CDISCSynonym>first patient treated - identity</nciodm:CDISCSynonym>
                    <nciodm:CDISCDefinition>The first subject who is so treated.</nciodm:CDISCDefinition>
                    <nciodm:PreferredTerm>First Subject Treated Identity</nciodm:PreferredTerm>
                </EnumeratedItem>
                <EnumeratedItem CodedValue="first-in-humans study" nciodm:ExtCodeID="C142564">
                    <nciodm:CDISCSynonym>first-in-man study</nciodm:CDISCSynonym>
                    <nciodm:CDISCDefinition>The first Phase 1 study in which the test product is administered to human beings.</nciodm:CDISCDefinition>
                    <nciodm:PreferredTerm>First-in-Human Study</nciodm:PreferredTerm>
                </EnumeratedItem>
                <EnumeratedItem CodedValue="follow-up (clinical study)" nciodm:ExtCodeID="C156841">
                    <nciodm:CDISCDefinition>A period in a clinical study during which information about the health status of an individual is obtained after study interventions have concluded. [CDISC SDTM Terminology] See also long term follow-up (clinical study).</nciodm:CDISCDefinition>
                    <nciodm:PreferredTerm>Follow-Up Period</nciodm:PreferredTerm>
                </EnumeratedItem>
                <EnumeratedItem CodedValue="Food and Drug Administration (FDA)" nciodm:ExtCodeID="C17237">
                    <nciodm:CDISCDefinition>The United States regulatory authority charged with, among other responsibilities, granting IND and NDA approvals.</nciodm:CDISCDefinition>
                    <nciodm:PreferredTerm>Food and Drug Administration</nciodm:PreferredTerm>
                </EnumeratedItem>
                <EnumeratedItem CodedValue="Form" nciodm:ExtCodeID="C19464">
                    <nciodm:CDISCDefinition>A collection of items and item groups for capturing and displaying clinical trial data.</nciodm:CDISCDefinition>
                    <nciodm:PreferredTerm>Form</nciodm:PreferredTerm>
                </EnumeratedItem>
                <EnumeratedItem CodedValue="frequentist methods" nciodm:ExtCodeID="C142565">
                    <nciodm:CDISCDefinition>Statistical methods, such as significance tests and confidence intervals, which can be interpreted in terms of the frequency of certain outcomes occurring in hypothetical repeated realizations of the same experimental situation. [ICH E9]</nciodm:CDISCDefinition>
                    <nciodm:PreferredTerm>Frequentist Method</nciodm:PreferredTerm>
                </EnumeratedItem>
                <EnumeratedItem CodedValue="frozen" nciodm:ExtCodeID="C142502">
                    <nciodm:CDISCDefinition>Status of a database, file, or element that has been presumed to be in its final state pending "lock" and where further editing is prevented without "unfreezing." NOTE: Freezing and unfreezing are usually formalized in audit trails and differ from "locking" and "unlocking" only in the degree of approval required. See database lock.</nciodm:CDISCDefinition>
                    <nciodm:PreferredTerm>Database Frozen</nciodm:PreferredTerm>
                </EnumeratedItem>
                <EnumeratedItem CodedValue="functional roles (in a study)" nciodm:ExtCodeID="C142438">
                    <nciodm:CDISCDefinition>The function or responsibility assumed by a person in the context of a clinical study. Examples include data manager, investigator. [HL7]</nciodm:CDISCDefinition>
                    <nciodm:PreferredTerm>Clinical Study Functional Role</nciodm:PreferredTerm>
                </EnumeratedItem>
                <EnumeratedItem CodedValue="functions" nciodm:ExtCodeID="C142468">
                    <nciodm:CDISCSynonym>functioning</nciodm:CDISCSynonym>
                    <nciodm:CDISCDefinition>The manner in which a patient can perform successfully tasks and roles required for everyday living. A patient's ability to perform specified activities that are a meaningful (to the patient), part of typical (e.g., daily) life. [FDA Clinical Outcome Assessment (COA) Glossary]</nciodm:CDISCDefinition>
                    <nciodm:PreferredTerm>Daily Living</nciodm:PreferredTerm>
                </EnumeratedItem>
                <EnumeratedItem CodedValue="gender" nciodm:ExtCodeID="C17357">
                    <nciodm:CDISCDefinition>Subject self-identification re: masculine/feminine. [IOM] See also sex.</nciodm:CDISCDefinition>
                    <nciodm:PreferredTerm>Gender</nciodm:PreferredTerm>
                </EnumeratedItem>
                <EnumeratedItem CodedValue="gene therapy" nciodm:ExtCodeID="C15238">
                    <nciodm:CDISCDefinition>Therapy based on ex vivo or in vivo gene modification of cells using specific technologies, e.g., viral vectors and direct genome editing technologies. NOTE: A particular example of this is the therapy with gene-modified T cells (chimeric antigen receptor (CAR) T-cell therapies) used as immunotherapy in oncology. [After Natalie Mount, et al. Cell-based therapy technology classifications and translational challenge. Philos Trans R Soc Lond B Biol Sci. 2015 Oct 19; 370(1680): 20150017.] See also cell therapy, regenerative medicine therapy, regenerative medicine advanced therapy, biological product.</nciodm:CDISCDefinition>
                    <nciodm:PreferredTerm>Gene Therapy</nciodm:PreferredTerm>
                </EnumeratedItem>
                <EnumeratedItem CodedValue="general observation class" nciodm:ExtCodeID="C165827">
                    <nciodm:CDISCDefinition>In the context of the Study Data Tabulation Model (SDTM), a higher level categorization of the subject-level observation domains. NOTE: Most CDISC domains are assigned to one of three general observation classes: 1) The Interventions general observation class is a domain that captures investigational treatments, therapeutic treatments, and surgical procedures that are intentionally administered to the subject (usually for therapeutic purposes) either as specified by the study protocol (e.g., exposure), coincident with the study assessment period (e.g., concomitant medications), or other substances self-administered by the subject (such as alcohol, tobacco, or caffeine). 2) The Events general observation class captures occurrences or incidents independent of planned study evaluations occurring during the trial (e.g., "adverse events" or "disposition") or prior to the trial (e.g., "medical history"). 3) The Findings general observation class captures the observations resulting from planned evaluations such as observations made during a physical examination, laboratory tests, ECG testing, and sets of individual questions listed on questionnaires. [Based on SDTM and SDTM Implementation Guide, www.CDISC.org] See also domain, event, intervention, finding. Compare with special purpose domain.</nciodm:CDISCDefinition>
                    <nciodm:PreferredTerm>CDISC General Observation Class</nciodm:PreferredTerm>
                </EnumeratedItem>
                <EnumeratedItem CodedValue="generalizability" nciodm:ExtCodeID="C142429">
                    <nciodm:CDISCDefinition>The extent to which the findings of a clinical trial can be reliably extrapolated from the subjects who participated in the trial to a broader patient population and a broader range of clinical settings. [ICH E9]</nciodm:CDISCDefinition>
                    <nciodm:PreferredTerm>Clinical Generalizability</nciodm:PreferredTerm>
                </EnumeratedItem>
                <EnumeratedItem CodedValue="generic name" nciodm:ExtCodeID="C97054">
                    <nciodm:CDISCDefinition>The drug identifying name to which all branded (proprietary) names for that medicinal product are associated.</nciodm:CDISCDefinition>
                    <nciodm:PreferredTerm>Generic Name</nciodm:PreferredTerm>
                </EnumeratedItem>
                <EnumeratedItem CodedValue="global assessment variable" nciodm:ExtCodeID="C142566">
                    <nciodm:CDISCDefinition>A single variable, usually a scale of ordered categorical ratings, which integrates objective variables and the investigator's overall impression about the state or change in state of a subject. [ICH E9]</nciodm:CDISCDefinition>
                    <nciodm:PreferredTerm>Global Assessment Variable</nciodm:PreferredTerm>
                </EnumeratedItem>
                <EnumeratedItem CodedValue="glossary" nciodm:ExtCodeID="C18232">
                    <nciodm:CDISCDefinition>A collection of specialized words or terms with their meanings.</nciodm:CDISCDefinition>
                    <nciodm:PreferredTerm>Glossary</nciodm:PreferredTerm>
                </EnumeratedItem>
                <EnumeratedItem CodedValue="Good Clinical Practice (GCP)" nciodm:ExtCodeID="C94236">
                    <nciodm:CDISCSynonym>GCRP</nciodm:CDISCSynonym>
                    <nciodm:CDISCSynonym>good clinical research practice</nciodm:CDISCSynonym>
                    <nciodm:CDISCDefinition>A standard for the design, conduct, performance, monitoring, auditing, recording, analyses, and reporting of clinical trials that provides assurance that the data and reported results are credible and accurate and that the rights, integrity, and confidentiality of trial subjects are protected. NOTE: For Guidance on Good Clinical Practice see COMP/ICH/135/95; Declaration of Helsinki; 21 CFR 50, 21 CFR 54, 21 CFR 56, and 21 CFR 312. [ICH]</nciodm:CDISCDefinition>
                    <nciodm:PreferredTerm>Good Clinical Practice</nciodm:PreferredTerm>
                </EnumeratedItem>
                <EnumeratedItem CodedValue="granularity" nciodm:ExtCodeID="C142567">
                    <nciodm:CDISCDefinition>Refers to the size of an information unit in relation to a whole. NOTE: Structuring "privileges" in electronic systems is said to be highly granular when each of many roles can differ in their capacity to act on electronic records.</nciodm:CDISCDefinition>
                    <nciodm:PreferredTerm>Granularity</nciodm:PreferredTerm>
                </EnumeratedItem>
                <EnumeratedItem CodedValue="group sequential design" nciodm:ExtCodeID="C142568">
                    <nciodm:CDISCDefinition>A trial design that allows a look at the data at particular time points or after a defined number of patients have been entered and followed up based on formulating a stopping rule derived from repeated significance tests. [Center for Advancement of Clinical Research]</nciodm:CDISCDefinition>
                    <nciodm:PreferredTerm>Group Sequential Design</nciodm:PreferredTerm>
                </EnumeratedItem>
                <EnumeratedItem CodedValue="handwritten signature" nciodm:ExtCodeID="C142569">
                    <nciodm:CDISCDefinition>The scripted name or legal mark of an individual handwritten by that individual and executed or adopted with the present intention to authenticate a writing in a permanent form. NOTE: The act of signing with a writing or marking instrument such as a pen or stylus is preserved. [21CFR 11]</nciodm:CDISCDefinition>
                    <nciodm:PreferredTerm>Handwritten Signature</nciodm:PreferredTerm>
                </EnumeratedItem>
                <EnumeratedItem CodedValue="harmonized standard" nciodm:ExtCodeID="C142542">
                    <nciodm:CDISCDefinition>A European Norm (EN) that has been accepted by all Member States and has been published in the Official Journal of the European Communities (OJEC).</nciodm:CDISCDefinition>
                    <nciodm:PreferredTerm>European Harmonized Standard</nciodm:PreferredTerm>
                </EnumeratedItem>
                <EnumeratedItem CodedValue="Health Level 7 (HL7)" nciodm:ExtCodeID="C80485">
                    <nciodm:CDISCDefinition>An ANSI-accredited Standards Developing Organization (SDO) operating in the healthcare arena. NOTE: Level 7 refers to the highest level of the International Standards Organization's (ISO) communications model for Open Systems Interconnection (OSI), the application level. The application level addresses definition of the data to be exchanged, the timing of the interchange, and the communication of certain errors to the application. Level 7 supports such functions as security checks, participant identification, availability checks, exchange mechanism negotiations, and, most importantly, data exchange structuring.</nciodm:CDISCDefinition>
                    <nciodm:PreferredTerm>Health Level Seven</nciodm:PreferredTerm>
                </EnumeratedItem>
                <EnumeratedItem CodedValue="health literacy" nciodm:ExtCodeID="C176259">
                    <nciodm:CDISCDefinition>The degree to which an individual has the capacity to obtain, communicate, process, and understand basic health information and services to make health decisions. [After The Patient Protection and Affordable Care Act of 2010, Title V; After What is Health Literacy? Oct 23, 2019]. See also plain language writing.</nciodm:CDISCDefinition>
                    <nciodm:PreferredTerm>Health Literacy</nciodm:PreferredTerm>
                </EnumeratedItem>
                <EnumeratedItem CodedValue="health-related quality of life (HRQoL)" nciodm:ExtCodeID="C142570">
                    <nciodm:CDISCDefinition>A multi-domain concept that represents the patient's general perception of the effect of illness and treatment on physical, psychological, and social aspects of life. NOTE: Claiming a statistical and meaningful improvement in HRQoL implies: (1) that all HRQoL domains that are important to interpreting change in how the clinical trial's population feels or functions as a result of the targeted disease and its treatment were measured; (2) that a general improvement was demonstrated; and (3) that no decrement was demonstrated in any domain. [FDA Clinical Outcome Assessment (COA) Glossary] Compare to quality of life (QoL).</nciodm:CDISCDefinition>
